compx,compy,compz,accelx,accely,accelz,gyrox,gyroy,gyroz,temp,baro,timestamp
0.4459,0.2533,0.3303,-1.270,-0.501,-9.611,0.000760,-0.001190,0.002019,32.4,83.991,1559177250.819586754
0.4492,0.2544,0.3315,-1.248,-0.502,-9.595,0.001333,-0.001431,0.002646,32.4,83.991,1559177250.854987144
0.4492,0.2533,0.3274,-1.272,-0.511,-9.618,0.000805,-0.000124,0.000692,32.4,84.003,1559177250.886643648
0.4448,0.2544,0.3290,-1.236,-0.534,-9.622,0.001271,-0.002217,0.002310,32.4,83.991,1559177250.919461489
0.4448,0.2556,0.3277,-1.270,-0.522,-9.614,0.000833,-0.000950,0.001726,32.4,84.003,1559177250.953348875
0.4470,0.2555,0.3316,-1.244,-0.510,-9.618,0.001245,0.000458,0.001963,32.4,83.991,1559177250.988065004
0.4448,0.2578,0.3290,-1.249,-0.486,-9.592,0.001235,-0.000192,0.002512,32.4,83.978,1559177251.023937225
0.4470,0.2544,0.3289,-1.244,-0.513,-9.599,0.001541,-0.003066,0.002739,32.4,83.991,1559177251.061406136
0.4459,0.2555,0.3317,-1.253,-0.504,-9.594,0.001267,-0.001041,0.002384,32.4,83.991,1559177251.100363970
0.4448,0.2556,0.3277,-1.242,-0.496,-9.627,0.000697,-0.001857,0.001631,32.4,83.978,1559177251.140077353
0.4481,0.2567,0.3302,-1.277,-0.502,-9.581,0.001728,-0.001550,0.002594,32.4,83.991,1559177251.179224014
0.4470,0.2544,0.3316,-1.259,-0.508,-9.597,0.001070,-0.001570,0.002392,32.4,83.991,1559177251.217967033
0.4459,0.2556,0.3303,-1.250,-0.513,-9.613,0.000988,-0.000103,0.002950,32.4,83.991,1559177251.257134676
0.4470,0.2521,0.3275,-1.270,-0.515,-9.592,0.000292,-0.000528,0.002538,32.4,83.991,1559177251.296347141
0.4448,0.2544,0.3290,-1.244,-0.505,-9.606,-0.000436,-0.001448,0.001848,32.4,83.978,1559177251.335841656
0.4470,0.2544,0.3303,-1.239,-0.513,-9.591,0.001364,-0.001303,0.001700,32.4,83.991,1559177251.375345707
0.4459,0.2544,0.3290,-1.262,-0.505,-9.603,-0.000639,-0.000902,0.002217,32.4,83.991,1559177251.414483786
0.4459,0.2567,0.3290,-1.269,-0.514,-9.619,0.001040,-0.000633,0.000849,32.4,84.003,1559177251.453773499
0.4470,0.2555,0.3303,-1.267,-0.508,-9.585,0.000139,-0.003335,0.001048,32.4,83.991,1559177251.493016481
0.4448,0.2544,0.3304,-1.274,-0.511,-9.590,0.001746,-0.001217,0.001700,32.4,83.991,1559177251.532198429
0.4481,0.2544,0.3316,-1.246,-0.525,-9.565,0.001606,-0.002128,0.001191,32.4,83.991,1559177251.571381092
0.4459,0.2544,0.3290,-1.251,-0.520,-9.603,0.002024,-0.000478,0.001814,32.4,83.991,1559177251.610444784
0.4470,0.2555,0.3275,-1.259,-0.530,-9.602,0.001090,-0.001771,0.001774,32.4,83.991,1559177251.649151087
0.4470,0.2544,0.3289,-1.232,-0.507,-9.632,0.002465,-0.001324,0.001903,32.4,83.987,1559177251.688028812
0.4449,0.2544,0.3317,-1.275,-0.537,-9.623,0.001151,-0.000253,0.001596,32.4,83.991,1559177251.726811171
0.4470,0.2521,0.3289,-1.248,-0.491,-9.572,-0.000870,-0.000922,0.001273,32.4,83.991,1559177251.765481234
0.4459,0.2521,0.3276,-1.265,-0.484,-9.587,0.001436,-0.000567,0.002193,32.4,83.991,1559177251.804268599
0.4438,0.2556,0.3291,-1.251,-0.515,-9.611,0.001137,-0.000284,0.001169,32.4,83.987,1559177251.842892170
0.4470,0.2555,0.3275,-1.238,-0.484,-9.594,-0.000945,-0.001384,0.000533,32.4,83.987,1559177251.881107330
0.4481,0.2544,0.3302,-1.275,-0.500,-9.594,-0.001328,-0.000902,0.001607,32.4,83.991,1559177251.919309139
0.4459,0.2544,0.3303,-1.274,-0.504,-9.589,-0.001824,-0.001545,0.001273,32.4,83.991,1559177251.957324743
0.4470,0.2567,0.3262,-1.267,-0.497,-9.618,-0.002286,-0.001047,0.000976,32.4,83.991,1559177251.995273590
0.4470,0.2555,0.3303,-1.271,-0.491,-9.599,0.001227,-0.001528,0.002286,32.4,83.987,1559177252.032846689
0.4438,0.2544,0.3318,-1.238,-0.517,-9.589,0.004149,0.000329,0.000277,32.4,83.974,1559177252.070283175
0.4448,0.2567,0.3290,-1.256,-0.495,-9.668,-0.002289,-0.002553,0.001914,32.4,83.991,1559177252.107628584
0.4470,0.2567,0.3289,-1.262,-0.548,-9.561,0.004233,-0.002494,0.002341,32.4,83.987,1559177252.144894600
0.4438,0.2567,0.3291,-1.276,-0.515,-9.675,-0.001852,0.000562,0.001382,32.4,83.991,1559177252.182077885
0.4448,0.2544,0.3263,-1.248,-0.478,-9.567,-0.001045,-0.003976,0.002232,32.4,84.003,1559177252.219446659
0.4470,0.2544,0.3275,-1.256,-0.535,-9.548,0.001493,-0.000061,0.001845,32.4,84.000,1559177252.256943226
0.4459,0.2544,0.3290,-1.223,-0.514,-9.615,0.001443,-0.000420,0.002031,32.4,83.987,1559177252.294572592
0.4427,0.2544,0.3291,-1.260,-0.494,-9.609,0.000126,-0.001808,0.001577,32.4,83.974,1559177252.331939936
0.4459,0.2556,0.3276,-1.271,-0.527,-9.623,-0.000161,-0.000555,0.001669,32.4,84.000,1559177252.369452715
0.4438,0.2556,0.3277,-1.268,-0.488,-9.614,0.001015,-0.001558,0.001862,32.4,83.987,1559177252.407414198
0.4502,0.2567,0.3287,-1.270,-0.509,-9.635,0.002157,0.000348,0.001596,32.4,83.991,1559177252.445259571
0.4459,0.2544,0.3262,-1.260,-0.509,-9.562,0.001231,-0.001821,0.002485,32.4,83.991,1559177252.482990026
0.4459,0.2567,0.3303,-1.272,-0.516,-9.598,0.000509,-0.001247,0.001913,32.4,84.003,1559177252.520936489
0.4459,0.2544,0.3303,-1.278,-0.525,-9.607,0.001144,-0.002075,0.002405,32.4,83.987,1559177252.558725595
0.4459,0.2567,0.3290,-1.249,-0.519,-9.601,-0.000216,0.000581,0.001766,32.4,83.991,1559177252.596426249
0.4481,0.2533,0.3302,-1.250,-0.497,-9.626,-0.000735,-0.000985,0.001660,32.4,83.987,1559177252.634365320
0.4470,0.2555,0.3316,-1.254,-0.472,-9.592,0.002108,-0.001155,0.001809,32.4,83.987,1559177252.672235489
0.4502,0.2555,0.3315,-1.264,-0.547,-9.623,0.003645,-0.001805,0.001617,32.4,83.987,1559177252.710125685
0.4459,0.2544,0.3290,-1.238,-0.529,-9.616,0.000756,-0.001937,0.001913,32.4,83.978,1559177252.748242140
0.4480,0.2578,0.3261,-1.242,-0.508,-9.567,-0.001154,0.000037,0.002218,32.4,83.974,1559177252.786638975
0.4481,0.2533,0.3275,-1.241,-0.472,-9.607,-0.001464,-0.001094,0.000542,32.4,84.003,1559177252.825169086
0.4470,0.2544,0.3303,-1.282,-0.483,-9.584,0.002554,-0.001564,0.001980,32.4,83.987,1559177252.863367558
0.4448,0.2556,0.3331,-1.274,-0.513,-9.612,0.003036,-0.001204,0.001493,32.4,83.987,1559177252.901878595
0.4481,0.2555,0.3248,-1.251,-0.511,-9.597,0.001280,-0.001114,0.001923,32.4,83.978,1559177252.940642834
0.4448,0.2533,0.3290,-1.243,-0.495,-9.589,-0.000860,-0.000617,0.001101,32.4,83.987,1559177252.979403973
0.4459,0.2578,0.3317,-1.242,-0.512,-9.604,0.000903,-0.000759,0.002524,32.4,83.978,1559177253.018340588
0.4491,0.2555,0.3288,-1.256,-0.503,-9.590,0.003065,-0.000134,0.001598,32.4,83.974,1559177253.057402611
0.4470,0.2544,0.3289,-1.283,-0.509,-9.614,0.004392,-0.000959,0.000384,32.4,83.991,1559177253.096336365
0.4491,0.2555,0.3288,-1.257,-0.520,-9.602,0.001464,-0.001982,0.001462,32.4,83.987,1559177253.135221720
0.4470,0.2567,0.3289,-1.243,-0.491,-9.587,-0.000309,-0.000088,0.002078,32.4,83.987,1559177253.173932076
0.4459,0.2533,0.3262,-1.238,-0.502,-9.611,-0.000483,-0.001418,0.000819,32.4,83.987,1559177253.212622166
0.4459,0.2533,0.3290,-1.240,-0.524,-9.577,0.002038,-0.001600,0.001694,32.4,83.991,1559177253.251371622
0.4459,0.2556,0.3303,-1.273,-0.527,-9.596,0.002600,-0.000624,0.000822,32.4,83.987,1559177253.290055990
0.4459,0.2567,0.3290,-1.269,-0.522,-9.615,-0.000713,-0.001290,0.002019,32.4,84.003,1559177253.328970909
0.4459,0.2544,0.3303,-1.239,-0.521,-9.617,-0.000397,-0.000595,0.001713,32.4,83.987,1559177253.367786169
0.4448,0.2544,0.3277,-1.235,-0.503,-9.636,0.000911,-0.001692,0.001676,32.4,83.987,1559177253.406591177
0.4449,0.2521,0.3290,-1.244,-0.531,-9.569,0.001047,-0.003292,0.001531,32.4,83.987,1559177253.445501804
0.4459,0.2544,0.3303,-1.295,-0.515,-9.600,0.001579,-0.001960,0.002845,32.4,83.987,1559177253.484035492
0.4448,0.2556,0.3290,-1.242,-0.510,-9.634,-0.000291,-0.000077,0.000968,32.4,83.991,1559177253.522879601
0.4459,0.2544,0.3276,-1.255,-0.505,-9.589,0.000201,0.000123,0.002125,32.4,83.987,1559177253.561821222
0.4470,0.2544,0.3289,-1.236,-0.519,-9.598,0.001111,-0.001527,0.002845,32.4,83.987,1559177253.600728512
0.4470,0.2555,0.3303,-1.223,-0.533,-9.599,0.000518,-0.000611,0.001913,32.4,83.987,1559177253.639863968
0.4491,0.2567,0.3288,-1.254,-0.537,-9.633,0.001374,-0.000427,0.000956,32.4,83.987,1559177253.678440332
0.4449,0.2533,0.3304,-1.247,-0.513,-9.562,0.000672,-0.001724,0.002527,32.4,83.987,1559177253.716821671
0.4449,0.2533,0.3304,-1.253,-0.498,-9.601,0.000742,-0.001470,0.001016,32.4,83.974,1559177253.755367041
0.4449,0.2533,0.3304,-1.230,-0.529,-9.617,0.001795,-0.001750,0.002316,32.4,83.974,1559177253.794309139
0.4438,0.2544,0.3304,-1.250,-0.510,-9.604,0.000941,-0.002324,0.001075,32.4,83.987,1559177253.833213091
0.4513,0.2544,0.3314,-1.267,-0.530,-9.598,0.000407,0.000744,0.000730,32.4,83.987,1559177253.871835470
0.4459,0.2533,0.3290,-1.253,-0.515,-9.612,-0.000996,-0.002177,0.001300,32.4,84.000,1559177253.910616875
0.4448,0.2556,0.3290,-1.256,-0.506,-9.586,0.000941,-0.001785,0.002352,32.4,83.974,1559177253.949019909
0.4481,0.2567,0.3302,-1.231,-0.524,-9.610,0.002645,-0.001579,0.001397,32.4,83.991,1559177253.987232208
0.4470,0.2567,0.3289,-1.260,-0.545,-9.577,0.001750,-0.000169,0.000610,32.4,84.000,1559177254.025753260
0.4459,0.2556,0.3290,-1.257,-0.507,-9.611,-0.000016,0.000681,0.002578,32.4,83.987,1559177254.064148188
0.4481,0.2555,0.3275,-1.266,-0.510,-9.614,0.000278,0.000027,0.001514,32.4,83.987,1559177254.102646112
0.4470,0.2555,0.3303,-1.253,-0.494,-9.571,0.000196,-0.001748,0.002205,32.4,84.000,1559177254.140779734
0.4459,0.2521,0.3289,-1.237,-0.530,-9.592,0.001326,-0.000719,0.001182,32.4,83.987,1559177254.178848028
0.4481,0.2544,0.3288,-1.256,-0.538,-9.602,0.000713,-0.001577,0.001395,32.4,83.974,1559177254.216708660
0.4448,0.2556,0.3290,-1.228,-0.521,-9.577,0.000919,-0.001841,0.001535,32.4,83.984,1559177254.254797935
0.4470,0.2544,0.3289,-1.263,-0.528,-9.608,-0.000232,-0.000573,0.001489,32.4,83.987,1559177254.292777538
0.4459,0.2533,0.3262,-1.249,-0.510,-9.609,0.000686,-0.001699,0.001753,32.4,84.000,1559177254.330803871
0.4470,0.2544,0.3275,-1.247,-0.501,-9.606,0.002178,-0.001440,0.001130,32.4,83.987,1559177254.368941545
0.4470,0.2555,0.3275,-1.281,-0.532,-9.588,0.000646,-0.000726,0.001698,32.4,83.987,1559177254.407146215
0.4448,0.2567,0.3290,-1.237,-0.504,-9.596,0.000357,-0.000121,0.000949,32.4,83.987,1559177254.445434332
0.4459,0.2533,0.3276,-1.235,-0.509,-9.588,0.000004,-0.000597,0.002770,32.4,83.987,1559177254.483834028
0.4438,0.2544,0.3291,-1.256,-0.510,-9.624,0.001505,-0.000658,0.002300,32.4,84.000,1559177254.522305727
0.4470,0.2521,0.3316,-1.254,-0.504,-9.629,0.002271,-0.002250,0.001302,32.4,83.987,1559177254.560847759
0.4448,0.2567,0.3290,-1.248,-0.520,-9.613,-0.000454,-0.000356,0.001447,32.4,83.987,1559177254.599351883
0.4448,0.2544,0.3290,-1.253,-0.522,-9.564,-0.000109,-0.001918,0.002590,32.4,83.984,1559177254.638185024
0.4470,0.2544,0.3330,-1.257,-0.496,-9.628,0.000973,0.000360,0.001848,32.4,83.987,1559177254.676846504
0.4448,0.2556,0.3290,-1.233,-0.487,-9.596,0.000609,-0.001235,0.001155,32.4,83.987,1559177254.715636730
0.4470,0.2567,0.3303,-1.268,-0.505,-9.635,0.002295,-0.001452,0.001163,32.4,83.991,1559177254.754612207
0.4470,0.2555,0.3275,-1.281,-0.517,-9.592,0.001096,-0.000779,0.000871,32.4,83.987,1559177254.793433189
0.4492,0.2544,0.3315,-1.263,-0.507,-9.619,-0.000421,-0.000045,0.002105,32.4,83.987,1559177254.832133532
0.4470,0.2567,0.3303,-1.249,-0.510,-9.622,-0.000252,-0.001545,0.001960,32.4,83.987,1559177254.870952606
0.4459,0.2567,0.3290,-1.258,-0.507,-9.598,0.002566,-0.002390,0.002047,32.4,83.987,1559177254.909844160
0.4449,0.2544,0.3317,-1.275,-0.499,-9.595,0.000646,-0.000618,0.002086,32.4,83.987,1559177254.948734283
0.4448,0.2556,0.3304,-1.238,-0.507,-9.584,0.001359,-0.002119,0.001088,32.4,83.974,1559177254.987438679
0.4470,0.2578,0.3276,-1.247,-0.524,-9.626,0.001758,-0.001325,0.001581,32.4,83.984,1559177255.026325226
0.4470,0.2555,0.3303,-1.232,-0.513,-9.613,0.001008,-0.001563,0.001842,32.4,83.971,1559177255.065130472
0.4470,0.2521,0.3302,-1.257,-0.498,-9.606,0.000427,-0.000967,0.002166,32.4,84.000,1559177255.103758812
0.4470,0.2555,0.3275,-1.257,-0.511,-9.633,0.001488,-0.000367,0.001314,32.4,83.987,1559177255.142287016
0.4438,0.2544,0.3277,-1.225,-0.523,-9.619,-0.000189,-0.001433,0.001515,32.4,84.000,1559177255.180566072
0.4459,0.2533,0.3317,-1.245,-0.477,-9.586,0.000655,-0.000628,0.000462,32.4,83.987,1559177255.218756199
0.4459,0.2555,0.3331,-1.242,-0.509,-9.611,0.000965,-0.001846,0.001821,32.4,84.000,1559177255.256853104
0.4470,0.2555,0.3316,-1.254,-0.495,-9.631,0.000279,-0.000590,0.001577,32.4,83.987,1559177255.294883728
0.4459,0.2590,0.3290,-1.261,-0.518,-9.626,0.001724,-0.000356,0.001068,32.4,84.000,1559177255.332673550
0.4438,0.2533,0.3277,-1.236,-0.496,-9.627,0.001522,-0.001110,0.001822,32.4,84.000,1559177255.483129740
0.4448,0.2556,0.3290,-1.260,-0.504,-9.608,0.002341,-0.001345,0.001251,32.4,83.984,1559177255.520502806
0.4470,0.2578,0.3303,-1.260,-0.513,-9.558,0.001440,-0.001217,0.001325,32.4,83.997,1559177255.558010578
0.4459,0.2544,0.3290,-1.248,-0.485,-9.606,0.000716,-0.000668,0.002485,32.4,83.997,1559177255.595737457
0.4459,0.2556,0.3290,-1.248,-0.487,-9.621,0.001254,-0.000226,0.001262,32.4,83.987,1559177255.633307934
0.4448,0.2567,0.3318,-1.260,-0.499,-9.611,0.001664,0.000064,0.002233,32.4,83.997,1559177255.670937061
0.4470,0.2544,0.3303,-1.260,-0.516,-9.588,0.001477,-0.000848,0.001754,32.4,84.000,1559177255.708489656
0.4491,0.2555,0.3302,-1.263,-0.522,-9.599,-0.000328,-0.000190,0.001187,32.4,83.984,1559177255.746134043
0.4502,0.2555,0.3274,-1.248,-0.508,-9.600,0.000794,-0.000990,0.001767,32.4,83.997,1559177255.784021854
0.4459,0.2556,0.3276,-1.245,-0.504,-9.618,0.001817,-0.000345,0.002700,32.4,84.000,1559177255.822304487
0.4459,0.2533,0.3290,-1.235,-0.502,-9.597,0.000550,-0.002272,0.001874,32.4,84.000,1559177255.860919237
0.4481,0.2510,0.3275,-1.250,-0.482,-9.568,0.002130,-0.000511,0.000485,32.4,83.984,1559177255.899375677
0.4449,0.2533,0.3304,-1.243,-0.494,-9.575,0.002112,-0.000615,0.003260,32.4,83.984,1559177255.937839508
0.4459,0.2578,0.3303,-1.236,-0.494,-9.596,0.000678,-0.000358,0.001759,32.4,83.984,1559177255.976333380
0.4459,0.2567,0.3276,-1.264,-0.531,-9.606,0.002027,-0.000850,0.002155,32.4,84.000,1559177256.014842510
0.4470,0.2555,0.3275,-1.259,-0.502,-9.627,0.001349,-0.001371,0.001289,32.4,83.984,1559177256.053572178
0.4448,0.2544,0.3304,-1.259,-0.499,-9.606,0.001175,-0.001635,0.002166,32.4,83.984,1559177256.092122316
0.4481,0.2533,0.3302,-1.270,-0.513,-9.611,0.000360,-0.001024,0.001700,32.4,83.987,1559177256.130833864
0.4427,0.2556,0.3264,-1.263,-0.490,-9.608,0.001441,-0.000165,0.001684,32.4,83.984,1559177256.169242859
0.4459,0.2544,0.3317,-1.257,-0.510,-9.615,0.001248,0.000038,0.001022,32.4,83.987,1559177256.207554340
0.4481,0.2567,0.3289,-1.254,-0.532,-9.609,0.001381,-0.001091,0.001412,32.4,83.987,1559177256.245916367
0.4438,0.2556,0.3291,-1.266,-0.508,-9.602,0.000657,-0.000265,0.002029,32.4,83.984,1559177256.284159899
0.4470,0.2567,0.3276,-1.236,-0.513,-9.588,0.000910,-0.000829,0.001727,32.4,83.997,1559177256.322469711
0.4459,0.2556,0.3290,-1.237,-0.499,-9.632,0.001619,-0.001915,0.001049,32.4,83.984,1559177256.360812664
0.4448,0.2556,0.3304,-1.264,-0.518,-9.608,0.000731,-0.001962,0.002047,32.4,83.984,1559177256.399226665
0.4470,0.2544,0.3330,-1.263,-0.504,-9.628,0.001182,0.000049,0.002741,32.4,83.984,1559177256.437322855
0.4470,0.2555,0.3289,-1.238,-0.513,-9.623,0.002101,-0.001477,0.000898,32.4,83.997,1559177256.475516558
0.4427,0.2556,0.3264,-1.259,-0.497,-9.600,0.001081,-0.000747,0.001048,32.4,83.997,1559177256.513774633
0.4470,0.2521,0.3275,-1.252,-0.506,-9.599,0.000969,-0.000496,0.001434,32.4,83.997,1559177256.552082777
0.4491,0.2555,0.3302,-1.248,-0.528,-9.632,0.000893,-0.001672,0.001275,32.4,83.984,1559177256.590263128
0.4448,0.2556,0.3304,-1.233,-0.519,-9.624,0.001188,-0.000670,0.000966,32.4,83.984,1559177256.628404856
0.4448,0.2544,0.3304,-1.263,-0.518,-9.589,0.000772,-0.002310,0.001399,32.4,83.971,1559177256.666502237
0.4470,0.2567,0.3303,-1.269,-0.494,-9.637,0.002323,-0.002008,0.001635,32.4,83.984,1559177256.704610109
0.4448,0.2556,0.3290,-1.274,-0.499,-9.612,0.000444,-0.001288,0.001886,32.4,83.997,1559177256.742785454
0.4459,0.2555,0.3317,-1.242,-0.499,-9.624,0.000360,-0.000888,0.002073,32.4,83.997,1559177256.781132460
0.4459,0.2533,0.3290,-1.277,-0.498,-9.768,0.029487,-0.043884,-0.004736,32.4,83.984,1559177256.936591864
0.4448,0.2556,0.3290,-1.262,-0.690,-9.504,0.026556,0.071303,-0.010086,32.4,83.993,1559177256.975976229
0.4448,0.2533,0.3290,-1.136,-0.714,-9.399,-0.311510,0.332194,0.003743,32.4,83.997,1559177257.014950514
0.4427,0.2510,0.3359,-0.972,-0.457,-10.213,-0.881262,0.462097,0.021201,32.4,83.997,1559177257.053863049
0.4374,0.2442,0.3403,-1.324,0.423,-9.499,-1.118281,0.326993,0.148452,32.4,83.984,1559177257.092841625
0.4375,0.2373,0.3443,-1.114,0.447,-9.410,-0.833302,0.320024,0.368122,32.4,83.984,1559177257.131613731
0.4354,0.2259,0.3484,-0.742,-0.110,-9.677,-0.857194,0.342508,0.378974,32.4,83.997,1559177257.170312405
0.4311,0.2180,0.3499,-0.641,-0.061,-9.984,-1.153520,0.378833,0.274454,32.4,83.997,1559177257.208768606
0.4301,0.2077,0.3567,-0.595,0.760,-9.563,-1.087395,0.325011,0.260051,32.4,83.997,1559177257.247097254
0.4291,0.1997,0.3567,-0.612,1.119,-9.384,-0.793671,0.227627,0.347310,32.4,83.984,1559177257.285387993
0.4259,0.1952,0.3555,-0.704,0.932,-9.355,-0.415903,0.180276,0.440034,32.4,83.981,1559177257.323588610
0.4270,0.1895,0.3595,-0.696,0.562,-9.717,-0.379551,0.187620,0.328897,32.4,83.984,1559177257.361811876
0.4260,0.1872,0.3582,-1.258,1.055,-9.232,-0.045116,0.419961,0.199951,32.4,83.993,1559177257.400312901
0.4228,0.1838,0.3597,-0.524,1.355,-10.281,-0.558780,0.147585,0.475492,32.4,83.981,1559177257.438832045
0.4239,0.1735,0.3609,-0.528,1.409,-9.914,-0.996150,0.261437,0.584668,32.4,83.984,1559177257.477224112
0.4251,0.1633,0.3621,-0.518,1.327,-9.600,-1.029349,0.313513,0.510071,32.4,83.981,1559177257.515702963
0.4165,0.1508,0.3652,-0.319,1.548,-9.694,-0.777331,0.250934,0.349276,32.4,83.997,1559177257.554139137
0.4144,0.1485,0.3653,-0.513,1.906,-9.342,-0.820814,0.342702,0.310574,32.4,83.984,1559177257.592403173
0.4188,0.1405,0.3637,-0.146,1.911,-9.536,-0.456895,0.159197,0.272298,32.4,83.997,1559177257.630548954
0.4134,0.1371,0.3667,-0.286,1.939,-9.446,-0.363893,0.164651,0.171627,32.4,84.010,1559177257.668698549
0.4134,0.1348,0.3694,-0.018,1.958,-8.861,-0.134788,0.137129,0.137798,32.4,83.993,1559177257.706811190
0.4102,0.1325,0.3682,-0.089,1.931,-9.786,-0.044699,0.050506,0.109375,32.4,83.993,1559177257.744573116
0.4124,0.1325,0.3708,0.073,2.132,-9.651,-0.145776,0.064189,0.065207,32.4,84.006,1559177257.782064676
0.4113,0.1291,0.3681,0.081,1.876,-9.080,-0.014447,0.056137,0.050044,32.4,83.997,1559177257.819842339
0.4134,0.1303,0.3680,-0.072,1.702,-8.451,0.426138,0.030793,0.150938,32.4,83.997,1559177257.857668877
0.4113,0.1314,0.3708,0.388,1.567,-9.818,0.164764,-0.079638,0.089193,32.4,83.981,1559177257.895612001
0.4124,0.1303,0.3708,0.118,1.817,-10.233,-0.043118,0.117566,0.212808,32.4,83.993,1559177257.933237314
0.4124,0.1268,0.3707,-0.086,1.796,-9.876,-0.454974,-0.080564,0.246554,32.4,84.006,1559177257.970893145
0.4060,0.1223,0.3752,-0.455,2.177,-7.743,-0.549311,0.254049,0.167083,32.4,84.006,1559177258.008635759
0.4114,0.1143,0.3707,1.356,-0.639,-12.673,-1.010975,-1.042495,0.860125,32.4,83.997,1559177258.046205521
0.4137,0.0972,0.3705,2.411,-0.464,-11.176,-2.424075,0.334990,-0.468942,32.4,83.993,1559177258.084141254
0.4073,0.0835,0.3816,-1.251,1.367,-8.398,-1.713928,0.665252,-0.688109,32.4,83.993,1559177258.122375488
0.4030,0.0858,0.3873,0.628,1.337,-10.177,1.517360,1.156020,0.173454,32.4,83.993,1559177258.160523891
0.3923,0.0779,0.4015,-3.287,4.887,-5.527,-2.972346,0.243563,-0.721415,32.4,83.993,1559177258.198552132
0.3924,0.0631,0.4014,-0.843,5.025,-11.570,-0.157771,-0.171499,0.076176,32.4,83.993,1559177258.236434221
-0.0468,0.4349,0.1803,6.654,-1.356,-5.002,-0.068083,-0.517689,0.093864,32.4,83.993,1559177258.388799906
-0.0436,0.4303,0.1869,6.751,-2.460,-5.675,-0.552787,-0.758402,-0.030144,32.4,83.993,1559177258.427509785
-0.0458,0.4360,0.1898,5.608,-3.982,-7.837,-0.171529,-0.300279,-0.120006,32.4,83.981,1559177258.466026545
-0.0479,0.4292,0.1912,6.548,-3.349,-8.246,-0.023279,0.231198,-0.437955,32.4,83.984,1559177258.504837990
-0.0554,0.4326,0.1889,7.135,-2.246,-7.730,0.205318,0.608400,-0.352536,32.4,83.981,1559177258.544041157
-0.0619,0.4327,0.1879,6.002,-1.569,-6.162,-0.027240,0.770311,-0.144248,32.4,83.968,1559177258.582921028
-0.0662,0.4327,0.1868,5.567,-2.146,-6.404,-0.272008,0.710448,-0.230159,32.4,83.981,1559177258.621961355
-0.0727,0.4304,0.1871,6.047,-2.095,-7.002,-0.137696,0.975699,-0.468942,32.4,83.981,1559177258.661049366
-0.0845,0.4271,0.1796,5.863,-1.594,-6.276,0.260300,1.052304,-0.559506,32.4,83.981,1559177258.700113058
-0.0888,0.4271,0.1744,5.986,-0.314,-4.316,0.286069,1.075904,-0.384232,32.4,83.981,1559177258.739293337
-0.0975,0.4283,0.1680,5.238,-0.924,-3.322,0.441460,0.892741,-0.157882,32.4,83.981,1559177258.778350830
-0.1029,0.4306,0.1615,5.353,-0.695,-3.110,1.072356,0.156798,-0.086939,32.4,83.968,1559177258.816982269
-0.1040,0.4340,0.1589,6.025,-1.443,-3.654,0.655796,-0.073896,-0.104395,32.4,83.993,1559177258.855530739
-0.1062,0.4340,0.1563,6.855,-1.346,-4.154,0.272917,0.031711,-0.105343,32.4,83.981,1559177258.893795013
-0.1083,0.4341,0.1496,6.963,-0.692,-3.650,0.516134,0.578180,-0.222191,32.4,83.981,1559177258.931670666
-0.1127,0.4398,0.1458,7.727,-0.148,-2.256,0.590328,0.604069,-0.274370,32.4,83.968,1559177258.969715595
-0.1170,0.4364,0.1392,8.192,0.027,-1.336,0.664344,0.493685,-0.189915,32.4,83.981,1559177259.007603168
-0.1181,0.4398,0.1325,7.087,-0.816,-1.409,0.574326,0.329933,0.120577,32.4,83.981,1559177259.045010805
-0.1181,0.4421,0.1270,6.620,-0.599,-1.229,0.424836,0.073243,0.286430,32.4,83.981,1559177259.081568241
-0.1160,0.4466,0.1270,7.438,0.684,-0.649,0.023711,-0.158875,0.375358,32.4,83.981,1559177259.117788076
-0.1106,0.4466,0.1308,7.105,1.779,0.595,0.352136,-0.796041,0.609160,32.4,83.977,1559177259.153995752
-0.1074,0.4523,0.1306,8.659,1.823,-0.356,0.808469,-1.394272,0.622159,32.4,83.981,1559177259.190099001
-0.0945,0.4568,0.1299,8.246,0.960,-2.354,1.154771,-1.503534,1.285947,32.4,83.968,1559177259.226174831
-0.0795,0.4670,0.1360,6.495,0.768,-2.206,0.099412,-1.583306,1.652585,32.4,83.981,1559177259.262460947
-0.0623,0.4760,0.1365,4.247,-0.463,-2.027,-0.217894,-2.158606,1.945433,32.4,83.981,1559177259.299163103
-0.0418,0.4782,0.1476,3.618,-0.636,-2.104,0.061026,-2.179842,1.258792,32.4,83.981,1559177259.336246967
-0.0246,0.4804,0.1494,3.931,-0.176,-3.441,0.225464,-1.959058,1.237514,32.4,83.993,1559177259.373991489
-0.0063,0.4871,0.1539,4.040,-0.270,-4.304,0.101797,-2.300531,1.953105,32.4,83.981,1559177259.412164450
0.0195,0.4893,0.1580,3.241,-1.258,-4.887,-0.534007,-2.344312,2.279024,32.4,83.981,1559177259.450690508
0.0454,0.4903,0.1674,2.442,-1.811,-5.132,-0.828237,-2.221488,2.207806,32.4,83.993,1559177259.489729166
0.0691,0.4890,0.1729,1.262,-2.705,-4.490,-1.196296,-2.100402,1.885178,32.4,83.981,1559177259.528803825
0.0918,0.4821,0.1812,1.186,-1.173,-3.266,-0.771810,-2.391079,1.558592,32.4,83.981,1559177259.567901611
0.1123,0.4820,0.1828,1.047,-0.600,-4.269,-0.240139,-2.567469,1.525172,32.4,83.981,1559177259.607117176
0.1338,0.4784,0.1816,-0.509,-1.143,-5.635,-0.282155,-2.621759,1.873197,32.4,83.981,1559177259.646220922
0.1618,0.4760,0.1800,-1.679,-1.959,-6.965,-0.916069,-2.758565,2.176738,32.4,83.981,1559177259.685323238
0.3009,0.3350,0.2817,-1.442,-5.008,-5.414,-0.442529,-2.640713,-0.732650,32.4,83.977,1559177259.839272976
0.3149,0.3292,0.2727,-3.472,-6.622,-8.344,-2.138933,-2.814237,-1.440478,32.4,83.977,1559177259.877533674
0.3225,0.3201,0.2695,-3.178,-5.571,-9.577,-2.326522,-2.484311,-1.501288,32.4,83.977,1559177259.915909290
0.3312,0.3166,0.2662,-2.934,-3.578,-10.669,-1.660275,-2.057144,-1.382058,32.4,83.990,1559177259.953984261
0.3398,0.3120,0.2617,-4.378,-2.576,-9.038,-1.053468,-1.797528,-1.457770,32.4,83.977,1559177259.991842270
0.3408,0.3120,0.2534,-4.740,-4.198,-11.133,-1.543152,-1.513487,-1.757389,32.4,83.977,1559177260.029410601
0.3441,0.3097,0.2532,-5.937,-4.821,-12.681,-2.038780,-1.104797,-2.099253,32.4,83.990,1559177260.067279339
0.3409,0.3086,0.2534,-6.420,-4.028,-12.111,-1.589868,-1.184733,-2.279393,32.4,83.990,1559177260.105512857
0.3365,0.3109,0.2482,-6.184,-1.387,-11.695,-1.444433,-0.852247,-2.080157,32.4,83.977,1559177260.143969297
0.3333,0.3120,0.2484,-5.977,0.481,-12.733,-0.974828,-0.616568,-2.041420,32.4,83.990,1559177260.182514668
0.3268,0.3178,0.2502,-5.995,0.131,-11.305,-0.824750,-0.416606,-2.194025,32.4,83.977,1559177260.221371412
0.3192,0.3224,0.2492,-5.621,0.414,-11.044,-0.618390,-0.357107,-2.310049,32.3,83.977,1559177260.260124922
0.3149,0.3235,0.2495,-2.620,2.014,-12.140,-0.900814,-0.257787,-2.036578,32.3,83.981,1559177260.298998833
0.3020,0.3293,0.2516,-2.907,4.125,-12.453,-0.523545,0.508805,-1.509984,32.3,83.990,1559177260.338004827
0.2858,0.3305,0.2566,-4.896,3.485,-12.554,0.141587,0.989028,-1.558623,32.3,83.977,1559177260.376794577
0.2782,0.3374,0.2584,-4.318,1.407,-13.273,0.886896,0.931287,-1.796321,32.3,83.990,1559177260.415138483
0.2631,0.3455,0.2579,-3.644,1.836,-10.508,0.993078,0.890857,-2.121254,32.3,83.990,1559177260.453014135
0.2458,0.3581,0.2590,-3.065,2.266,-10.316,0.994208,0.632547,-2.406753,32.3,83.977,1559177260.490608692
0.2307,0.3650,0.2585,-2.377,2.055,-9.955,0.699737,0.812741,-2.438837,32.3,83.990,1559177260.528063536
0.2101,0.3697,0.2556,-2.311,3.350,-9.135,-0.253369,0.852967,-2.360403,32.3,83.977,1559177260.565268993
0.1907,0.3743,0.2608,-1.161,2.985,-9.639,0.158443,0.899992,-2.410487,32.3,83.977,1559177260.602384090
0.1767,0.3813,0.2602,-1.275,3.061,-9.134,0.524777,0.643303,-2.194049,32.3,83.990,1559177260.639358997
0.1659,0.3802,0.2649,0.630,3.802,-8.252,0.178389,0.333903,-1.772247,32.3,83.964,1559177260.676242590
0.1519,0.3825,0.2630,1.140,3.815,-7.071,-0.076210,0.414581,-1.376808,32.3,83.990,1559177260.712924480
0.1444,0.3837,0.2661,-0.102,2.806,-7.672,-0.675320,0.229728,-1.340597,32.3,83.977,1559177260.749693394
0.1348,0.3746,0.2747,-0.661,3.007,-8.873,-0.834094,0.011061,-1.359731,32.3,83.977,1559177260.786656857
0.1262,0.3735,0.2738,0.038,3.411,-9.913,-0.129448,-0.241465,-1.293324,32.3,83.990,1559177260.823844910
0.1219,0.3747,0.2795,1.110,3.700,-10.003,0.046574,-0.311160,-1.069302,32.3,83.990,1559177260.861011028
0.1186,0.3724,0.2743,2.548,4.638,-7.834,-0.308866,-0.302942,-0.718286,32.3,83.990,1559177260.897793055
0.1187,0.3679,0.2797,2.401,5.192,-7.600,-0.637798,-0.271873,-0.336947,32.3,83.977,1559177260.934498072
0.1208,0.3667,0.2809,1.433,5.118,-8.285,-0.674885,-0.381980,-0.068971,32.3,83.990,1559177260.971256256
0.1187,0.3599,0.2864,0.913,4.375,-9.100,-0.360277,-0.352695,0.299981,32.3,83.977,1559177261.008033037
0.1241,0.3621,0.2848,1.332,4.305,-9.538,0.000804,-0.560196,0.598083,32.3,83.990,1559177261.045073748
0.1295,0.3610,0.2845,1.437,4.276,-9.488,0.112143,-0.459795,0.880677,32.3,83.987,1559177261.082278967
0.1413,0.3620,0.2825,1.539,4.916,-8.719,-0.177611,-0.432953,1.158388,32.3,83.990,1559177261.119550943
0.1500,0.3597,0.2847,1.122,4.689,-9.274,-0.060659,-0.339200,1.491937,32.3,83.974,1559177261.156881571
0.1575,0.3585,0.2815,0.182,3.892,-10.459,-0.033828,-0.316307,1.597717,32.3,83.987,1559177261.194674015
0.1704,0.3585,0.2822,-0.099,3.963,-10.935,0.031211,-0.154130,1.680109,32.3,83.964,1559177261.232730627
0.1801,0.3573,0.2803,0.176,4.023,-10.399,0.206270,-0.126729,1.887877,32.3,83.977,1559177261.271501064
0.3821,0.1167,0.2947,-3.097,-5.279,-10.240,0.053105,0.333844,-0.530200,32.3,83.987,1559177261.430208683
0.3799,0.1213,0.2962,-3.095,-5.311,-9.323,0.080275,0.418058,-0.846224,32.3,83.987,1559177261.470645189
0.3767,0.1236,0.3005,-3.196,-5.175,-9.435,-0.325856,0.422161,-1.190060,32.3,83.987,1559177261.511148214
0.3734,0.1293,0.3021,-3.343,-4.788,-9.711,-0.246288,0.407641,-1.446572,32.3,83.987,1559177261.551335096
0.3723,0.1350,0.3022,-3.104,-4.559,-10.255,0.021759,0.432438,-1.646256,32.3,83.987,1559177261.591187000
0.3668,0.1465,0.3039,-3.112,-4.657,-10.103,0.370663,0.520791,-1.818917,32.3,83.987,1559177261.630633593
0.3635,0.1590,0.3056,-3.448,-4.665,-9.772,0.537896,0.379716,-1.994188,32.3,84.003,1559177261.669902325
0.3591,0.1727,0.3073,-3.197,-4.231,-9.020,0.615800,0.312973,-2.149292,32.3,83.987,1559177261.708880663
0.3591,0.1830,0.3046,-3.216,-4.331,-9.673,0.581612,0.362351,-2.368166,32.3,84.000,1559177261.747318983
0.3493,0.2002,0.3080,-3.820,-4.511,-10.600,0.524916,0.433729,-2.581726,32.3,83.987,1559177261.785371780
0.3492,0.2150,0.3095,-4.382,-4.738,-10.241,0.678151,0.234151,-2.843336,32.3,83.987,1559177261.822874546
0.3383,0.2287,0.3075,-4.313,-4.210,-9.765,0.412441,0.167621,-3.127773,32.3,83.977,1559177261.860059977
0.3296,0.2459,0.3053,-4.254,-3.494,-9.866,0.287295,0.248662,-3.225080,32.3,83.974,1559177261.897003889
0.3209,0.2573,0.3045,-4.719,-3.185,-9.836,0.155467,0.134882,-3.358162,32.3,83.987,1559177261.934093237
0.3111,0.2711,0.3065,-4.978,-2.911,-9.862,0.069657,0.040735,-3.522374,32.3,83.987,1559177261.971101999
0.2981,0.2848,0.3033,-4.862,-2.250,-10.017,0.106815,-0.111969,-3.554206,32.3,83.987,1559177262.008117676
0.2894,0.2963,0.3025,-4.246,-1.156,-9.744,0.263713,-0.121973,-3.567013,32.3,83.990,1559177262.044690132
0.2785,0.3089,0.3031,-3.777,-0.111,-9.891,0.244986,-0.156226,-3.508034,32.3,83.990,1559177262.081163645
0.2634,0.3238,0.3014,-4.699,0.557,-10.502,0.507406,-0.069663,-3.314659,32.3,83.987,1559177262.117679834
0.2547,0.3307,0.2978,-5.456,1.406,-9.960,0.315992,-0.132681,-3.260949,32.3,83.974,1559177262.154062271
0.2417,0.3410,0.2931,-4.213,1.280,-9.599,0.426648,-0.258197,-3.153419,32.3,83.987,1559177262.190547705
0.2244,0.3525,0.2901,-1.636,-0.496,-10.232,0.504203,-0.179994,-3.241939,32.3,84.000,1559177262.227370262
0.2136,0.3571,0.2934,-2.720,-0.365,-10.206,0.189646,0.315561,-3.319145,32.3,83.987,1559177262.264271736
0.1909,0.3652,0.2907,-3.969,0.573,-9.597,0.252548,0.331003,-3.056108,32.3,83.987,1559177262.301737070
0.1715,0.3687,0.2877,-3.467,0.969,-9.685,0.623876,0.023743,-2.999940,32.3,83.987,1559177262.339123249
0.1585,0.3722,0.2884,-3.090,0.784,-10.072,0.489914,0.064950,-3.118298,32.3,83.987,1559177262.376737833
0.1380,0.3769,0.2868,-3.415,0.833,-9.328,0.095213,0.162519,-3.250720,32.3,83.987,1559177262.414453506
0.1176,0.3758,0.2866,-3.383,1.275,-8.637,0.123377,-0.054956,-3.227531,32.3,83.987,1559177262.452305317
0.1046,0.3748,0.2859,-3.195,1.747,-9.359,-0.009995,-0.327923,-3.213830,32.3,83.987,1559177262.490223885
0.0885,0.3703,0.2868,-2.324,2.493,-9.954,0.155587,-0.231574,-3.141200,32.3,83.987,1559177262.528458357
0.0670,0.3681,0.2893,-2.732,2.532,-8.737,0.139629,-0.368998,-3.102511,32.3,83.974,1559177262.566635370
0.0573,0.3670,0.2885,-2.388,2.565,-7.619,0.234982,-0.627375,-3.079711,32.3,83.987,1559177262.604639530
0.0444,0.3580,0.2878,-1.947,3.553,-7.207,-0.009701,-0.927875,-3.056090,32.3,83.987,1559177262.642585278
0.0327,0.3489,0.2924,-1.223,4.933,-7.750,-0.201311,-1.169654,-2.836313,32.3,83.987,1559177262.680413485
0.0252,0.3444,0.2996,-1.074,5.837,-8.641,-0.039337,-1.231551,-2.487246,32.3,83.987,1559177262.718894482
0.0111,0.3661,0.3264,0.299,-0.554,-2.357,0.425507,-0.465247,0.185199,32.3,83.971,1559177262.873771191
0.0186,0.3672,0.3260,0.060,-0.129,-0.213,-0.051067,-0.978602,0.277359,32.3,83.974,1559177262.912877798
0.0251,0.3672,0.3270,0.122,-0.443,0.195,0.459100,-1.465960,0.248173,32.3,83.983,1559177262.952185392
0.0369,0.3740,0.3251,3.074,1.239,-3.481,1.038892,-1.442119,0.196277,32.3,83.983,1559177262.991575241
0.0466,0.3751,0.3245,2.244,0.676,-4.392,-0.080359,-1.188160,-0.067091,32.3,83.983,1559177263.030831814
0.0563,0.3750,0.3254,0.071,0.108,-2.097,0.443328,-1.239816,0.009382,32.3,83.971,1559177263.069985151
0.0627,0.3795,0.3223,0.864,0.241,-2.563,0.400267,-1.310150,0.118691,32.3,83.983,1559177263.108722210
0.0735,0.3795,0.3231,1.306,0.872,-3.926,0.121329,-1.120887,0.361939,32.3,83.971,1559177263.147093058
0.0788,0.3817,0.3187,-0.317,1.172,-4.829,0.912879,-1.005909,0.467048,32.3,83.987,1559177263.185161114
0.0907,0.3840,0.3140,-0.081,0.570,-5.350,0.011507,-1.102789,0.321391,32.3,83.996,1559177263.223173141
0.0950,0.3839,0.3138,0.158,0.877,-5.844,0.019345,-0.996606,0.319340,32.3,83.971,1559177263.261227131
0.1057,0.3839,0.3118,-0.538,0.368,-6.093,0.219698,-0.840658,0.496155,32.3,83.983,1559177263.299200058
0.1111,0.3850,0.3115,-1.107,-0.080,-5.999,-0.298432,-0.699231,0.355552,32.3,83.983,1559177263.337205410
0.1133,0.3770,0.3086,-1.150,0.256,-7.937,-0.535626,-0.542827,0.211423,32.3,83.983,1559177263.374777555
0.1134,0.3713,0.3086,-1.824,0.163,-10.054,-0.152788,-0.427295,0.242352,32.3,83.983,1559177263.412397861
0.1176,0.3747,0.3016,-2.549,-0.684,-9.028,0.556183,-0.694692,0.303157,32.3,83.971,1559177263.450164795
0.1241,0.3735,0.2971,-2.168,-0.153,-8.815,-0.009135,-0.890735,0.270423,32.3,83.983,1559177263.488176584
0.1263,0.3678,0.2942,-2.073,-0.018,-9.614,-0.423523,-0.672915,0.364209,32.3,83.996,1559177263.526218414
0.1317,0.3644,0.2953,-2.256,0.248,-10.348,-0.831476,-0.633768,0.590908,32.3,83.983,1559177263.564260006
0.1371,0.3552,0.2963,-2.877,0.179,-11.310,-0.967683,-0.605884,0.771540,32.3,83.983,1559177263.602020264
0.1425,0.3472,0.2932,-2.582,-0.028,-12.304,-0.560590,-0.888983,0.757542,32.3,83.983,1559177263.639977694
0.1469,0.3449,0.2916,-2.377,-0.691,-13.143,0.031050,-1.199436,0.432783,32.3,83.983,1559177263.678014994
0.1512,0.3437,0.2818,-2.433,-1.632,-13.097,-0.065123,-1.382360,0.198418,32.3,83.971,1559177263.716195107
0.1544,0.3369,0.2788,-2.238,-1.735,-12.685,-0.975518,-1.276196,0.391802,32.3,83.983,1559177263.754872322
0.1588,0.3255,0.2826,-1.863,-0.694,-13.631,-2.349681,-0.886146,0.895839,32.3,83.983,1559177263.793456793
0.1654,0.3060,0.2889,-2.914,0.890,-16.174,-2.586103,-0.726364,0.972549,32.3,83.983,1559177263.831836462
0.1698,0.2923,0.2886,-2.909,1.198,-18.745,-2.060213,-0.961519,0.504447,32.3,83.983,1559177263.870589733
0.1731,0.2809,0.2924,-2.039,1.278,-21.754,-1.907284,-0.830350,0.600607,32.3,83.996,1559177263.909831285
0.1732,0.2672,0.2950,-1.820,0.946,-24.420,-1.768006,-0.123128,0.908874,32.3,83.996,1559177263.949366808
0.1765,0.2581,0.2934,-2.437,-0.321,-24.588,-0.918973,0.508096,0.897865,32.3,83.996,1559177263.989249706
0.1754,0.2569,0.2948,-3.150,-1.432,-25.012,-0.064932,0.692811,0.500377,32.3,83.983,1559177264.028993130
0.1690,0.2592,0.2993,-3.557,-1.559,-25.068,0.680404,1.044464,-0.027149,32.3,83.996,1559177264.068648815
0.1711,0.2638,0.3033,-3.184,-0.714,-23.785,1.546306,1.291158,-0.533217,32.3,83.983,1559177264.108276844
0.1613,0.2787,0.3053,-2.360,1.069,-21.136,2.054431,1.549130,-0.804852,32.3,83.996,1559177264.147560120
0.1505,0.2936,0.3033,-1.793,2.484,-18.207,2.109438,1.837882,-0.749773,32.3,83.983,1559177264.186667681
0.1596,0.3585,0.2569,-2.920,-3.294,-25.899,-3.187060,-1.024608,0.769433,32.3,83.980,1559177264.341395855
0.1598,0.3369,0.2636,-2.154,-3.264,-26.823,-3.443212,-0.152662,0.497006,32.3,83.993,1559177264.379703045
0.1578,0.3175,0.2717,-0.985,-3.086,-27.298,-2.229425,0.106132,0.517893,32.3,83.967,1559177264.418527842
0.1578,0.3061,0.2716,-0.571,-4.209,-27.281,-1.319839,0.004539,0.642994,32.3,83.980,1559177264.457508564
0.1557,0.3004,0.2758,-0.738,-4.658,-26.277,-0.778503,0.397665,0.541726,32.3,83.993,1559177264.496249914
0.1568,0.2970,0.2771,0.471,-4.119,-25.359,-0.801861,0.593771,0.447362,32.3,83.993,1559177264.535037518
0.1558,0.2924,0.2839,0.857,-2.823,-25.375,-0.127921,0.950907,0.154425,32.3,83.980,1559177264.574264288
0.1482,0.2981,0.2830,1.299,-1.246,-24.856,0.787316,1.148748,-0.171614,32.3,83.980,1559177264.613491297
0.1514,0.3015,0.2869,0.323,-1.273,-23.460,1.583002,1.404359,-0.256505,32.3,83.993,1559177264.652720928
0.1427,0.3187,0.2848,-0.784,-0.654,-21.271,1.771178,1.660204,-0.389561,32.3,83.980,1559177264.691604137
0.1362,0.3324,0.2880,-0.703,-0.277,-18.392,1.751527,1.629968,-0.331591,32.3,83.980,1559177264.730295658
0.1264,0.3416,0.2927,-1.010,0.374,-16.670,1.457382,1.594990,-0.452433,32.3,83.993,1559177264.768709183
0.1221,0.3507,0.2916,-1.518,1.267,-14.275,1.055969,1.596706,-0.375419,32.3,83.980,1559177264.806974649
0.1156,0.3565,0.2947,-1.458,1.738,-11.013,0.325649,1.470898,-0.101955,32.3,83.980,1559177264.844878912
0.1059,0.3588,0.3021,-1.330,2.671,-11.037,-0.371627,1.753962,0.065468,32.3,83.980,1559177264.882583380
0.0994,0.3565,0.3092,-0.269,2.109,-9.282,-0.043872,1.867337,0.020509,32.3,83.990,1559177264.920063019
0.0897,0.3600,0.3125,-2.242,1.915,-4.720,0.874706,1.466024,0.029989,32.3,83.993,1559177264.957211494
0.0864,0.3714,0.3073,-1.182,1.931,-2.915,2.045816,1.050031,0.153713,32.3,83.980,1559177264.993860960
0.0766,0.3852,0.3039,-0.745,0.574,-2.440,1.417021,1.236320,-0.128653,32.3,83.983,1559177265.030646086
0.0658,0.3932,0.3005,-0.376,0.195,-4.349,0.206725,1.404814,-0.465964,32.3,83.993,1559177265.067520618
0.0583,0.3933,0.3009,-1.195,0.063,-5.420,0.671674,1.404154,-0.394497,32.3,83.980,1559177265.104528904
0.0485,0.4036,0.2920,-1.952,-0.541,-2.931,1.889768,0.932059,-0.268657,32.3,83.980,1559177265.141746998
0.0419,0.4184,0.2815,-0.202,-0.126,-0.954,2.018695,0.522417,-0.364199,32.3,83.977,1559177265.178947210
0.0386,0.4253,0.2736,1.337,0.062,-1.367,0.903827,0.788142,-0.470408,32.3,83.967,1559177265.215996265
0.0300,0.4242,0.2713,1.832,0.395,-2.285,-0.201777,1.059026,-0.518028,32.3,83.967,1559177265.253250599
0.0203,0.4254,0.2732,1.152,-0.094,-2.262,0.307915,1.220626,-0.220333,32.3,83.993,1559177265.290596485
0.0159,0.4254,0.2680,0.242,-1.069,-2.990,0.062675,1.126996,-0.184554,32.3,83.980,1559177265.328341722
0.0062,0.4289,0.2645,0.411,-0.771,-1.580,0.347323,0.787770,0.007625,32.3,83.993,1559177265.365965843
-0.0003,0.4312,0.2608,1.178,0.453,0.172,0.097222,0.538585,-0.052069,32.3,83.977,1559177265.403536320
-0.0035,0.4324,0.2596,1.874,1.287,0.980,0.359538,0.162297,-0.094683,32.3,83.980,1559177265.441086292
-0.0025,0.4346,0.2582,1.562,1.491,-0.201,1.059559,-0.129937,0.005733,32.3,83.990,1559177265.478577614
0.0018,0.4437,0.2458,1.112,1.086,1.223,1.456686,-0.496147,0.253981,32.3,83.980,1559177265.515818834
0.0060,0.4494,0.2442,0.500,0.253,4.711,1.020945,-0.837302,0.625026,32.3,83.980,1559177265.553451538
0.0125,0.4505,0.2384,3.436,-0.610,2.218,-0.657492,-0.829205,0.473417,32.3,83.980,1559177265.591149569
0.0212,0.4379,0.2528,0.364,0.120,2.549,-2.948144,-0.982859,0.083093,32.3,83.980,1559177265.629174709
0.1058,0.3805,0.3145,0.374,1.261,-5.423,0.247452,0.841806,0.539406,32.3,83.977,1559177265.779862881
0.1068,0.3862,0.3159,0.280,0.516,-3.959,0.366672,0.948460,0.686270,32.3,83.986,1559177265.817542315
0.1025,0.3885,0.3120,0.078,-0.655,-5.012,0.160084,0.626534,0.615505,32.3,83.964,1559177265.855383635
0.1036,0.3896,0.3161,0.308,-1.218,-4.454,-0.135494,0.218330,0.335023,32.3,83.973,1559177265.893042088
0.1036,0.3873,0.3174,1.299,-0.831,-2.856,-0.466525,-0.202243,-0.050172,32.3,83.986,1559177265.931039333
0.1047,0.3873,0.3187,1.952,0.170,-4.587,0.625827,-0.107908,0.134381,32.3,83.973,1559177265.969222307
0.1046,0.3907,0.3147,2.387,-0.640,-4.810,-0.060726,0.184221,0.219964,32.3,83.977,1559177266.007435799
0.1068,0.3873,0.3172,1.581,-0.715,1.743,-0.688237,0.080055,0.251631,32.3,83.973,1559177266.045864582
0.1090,0.3850,0.3185,2.139,-0.023,2.573,0.201805,-0.225470,0.880163,32.3,83.977,1559177266.084650040
0.1133,0.3816,0.3250,0.508,-1.163,2.120,-0.732599,-0.581256,0.284555,32.3,83.977,1559177266.123728275
0.1220,0.3770,0.3231,-0.181,-1.268,2.906,-0.597863,-1.423834,-0.124020,32.3,83.977,1559177266.162967443
0.1327,0.3758,0.3144,0.430,-1.183,2.282,1.196328,-1.921619,0.144861,32.3,83.973,1559177266.202270746
0.1423,0.3871,0.3139,0.806,-1.545,1.222,0.063729,-1.787825,-0.075307,32.3,83.986,1559177266.241586924
0.1488,0.3791,0.3067,-0.193,-0.772,1.697,-1.691477,-1.586819,-0.244614,32.3,83.977,1559177266.280518055
0.1630,0.3608,0.3194,-2.591,-0.257,2.150,-2.272122,-2.035071,-0.221423,32.3,83.973,1559177266.318964243
0.1792,0.3470,0.3170,-3.627,0.131,2.366,-1.026224,-2.997375,-0.209677,32.3,83.986,1559177266.357040167
0.1964,0.3481,0.3066,-2.659,-0.529,1.490,0.727382,-3.642778,-0.037202,32.3,83.973,1559177266.395303011
0.2147,0.3480,0.2933,-2.784,-0.370,0.499,-0.075872,-3.907903,-0.601234,32.3,83.973,1559177266.433213949
0.2308,0.3525,0.2788,-4.719,0.546,0.541,-0.133098,-3.900352,-0.628934,32.3,83.990,1559177266.470957994
0.2437,0.3478,0.2631,-13.352,20.215,-13.798,10.786054,-0.720558,0.283922,32.3,83.999,1559177266.508721352
0.2337,0.3764,0.2298,7.872,3.693,-18.265,-9.842756,0.025605,-1.943782,32.3,83.973,1559177266.546195030
0.2201,0.3331,0.2534,-8.367,5.275,-24.488,-4.142866,2.431447,1.341676,32.3,83.986,1559177266.583932877
0.2094,0.3149,0.2620,-5.256,4.941,-21.168,-2.760513,2.039217,1.901153,32.3,83.990,1559177266.622253180
0.1956,0.2990,0.2654,-3.998,4.368,-22.704,-0.902163,1.738890,1.657653,32.3,83.986,1559177266.660853386
0.1912,0.2968,0.2588,-1.683,-0.965,-20.203,-0.364735,-0.004420,1.646199,32.3,83.986,1559177266.699447870
0.1934,0.2922,0.2546,-2.586,-2.263,-16.309,0.064240,-0.917915,1.292995,32.3,83.986,1559177266.738282442
0.1987,0.2967,0.2461,-1.785,-3.417,-19.774,1.092261,-1.090462,0.935648,32.3,83.999,1559177266.777094841
0.2030,0.2979,0.2391,-0.575,-3.665,-21.382,0.533043,-0.691374,0.439652,32.3,83.986,1559177266.816150904
0.2008,0.3002,0.2352,-0.189,-3.925,-20.085,-0.409015,0.157231,0.335272,32.3,83.999,1559177266.855087996
0.2009,0.2933,0.2406,0.280,-3.019,-18.651,-1.357625,0.976770,0.203846,32.3,83.986,1559177266.894056797
0.1935,0.2819,0.2463,1.221,-1.413,-17.535,-1.908578,1.154357,-0.118856,32.3,83.986,1559177266.932933092
0.1881,0.2785,0.2561,1.719,-0.083,-15.983,-0.769005,0.404288,-0.431580,32.3,83.999,1559177266.972019196
0.1871,0.2751,0.2562,1.433,0.613,-15.515,0.721329,-0.510574,-0.773214,32.3,83.986,1559177267.011148691
0.1902,0.2865,0.2534,0.025,0.753,-14.821,1.900910,-1.003519,-0.996901,32.3,83.996,1559177267.050163507
0.1955,0.2990,0.2491,-1.020,0.787,-13.438,1.853073,-1.037255,-1.192401,32.3,83.986,1559177267.089152336
0.2008,0.3093,0.2434,-0.355,0.968,-12.775,1.374378,-0.308041,-1.177554,32.3,83.986,1559177267.127995729
0.1965,0.3161,0.2423,-0.896,1.505,-11.567,0.923898,0.218380,-0.922345,32.3,83.986,1559177267.166467905
0.1986,0.3241,0.2450,0.059,-0.383,-12.785,0.739836,0.734513,-0.857828,32.3,83.986,1559177267.204853296
0.1942,0.3264,0.2480,-0.195,1.216,-14.754,1.014042,1.098930,-0.729292,32.3,83.986,1559177267.243034601
0.1899,0.3310,0.2510,-2.038,0.919,-14.284,0.724372,1.388169,-0.567834,32.3,83.986,1559177267.280750751
0.1744,0.2695,0.3385,1.369,3.165,-4.058,0.990516,-0.369384,0.310493,32.3,83.983,1559177267.430540800
0.1765,0.2763,0.3330,0.106,0.998,-8.191,1.258078,0.073403,0.587889,32.3,83.983,1559177267.468036890
0.1776,0.2786,0.3330,2.381,1.848,-10.326,-0.108129,0.452315,0.311441,32.3,83.983,1559177267.505388260
0.1690,0.2764,0.3334,1.379,1.713,-10.004,-0.086941,0.887874,0.444005,32.3,83.983,1559177267.542942524
0.1700,0.2786,0.3361,1.010,1.525,-8.972,1.128706,0.772299,0.759002,32.3,83.983,1559177267.580985546
0.1646,0.2844,0.3310,0.699,0.372,-8.163,0.633414,0.520716,0.349499,32.3,83.983,1559177267.619577169
0.1624,0.2889,0.3312,0.631,0.322,-8.154,0.361114,0.173021,0.034139,32.3,83.970,1559177267.658077717
0.1635,0.2878,0.3311,0.401,-0.035,-7.934,0.320179,-0.065302,-0.000642,32.3,83.996,1559177267.696188450
0.1613,0.2924,0.3272,0.756,-0.091,-8.365,0.101766,-0.089227,-0.140403,32.3,83.983,1559177267.734265566
0.1635,0.2923,0.3271,-0.264,-0.355,-8.073,-0.005692,0.036305,-0.138829,32.3,83.996,1559177267.772170305
0.1602,0.2924,0.3313,-1.227,-0.696,-7.343,0.000228,-0.018373,-0.012443,32.3,83.983,1559177267.809904337
0.1613,0.2924,0.3272,-3.219,1.484,-9.563,1.688577,0.203273,0.198304,32.3,83.983,1559177267.847756624
0.1613,0.2935,0.3217,-0.952,-1.179,-6.281,-0.974438,-0.866450,-0.405409,32.3,83.983,1559177267.886062384
0.1645,0.2946,0.3229,-1.181,-0.602,-6.186,0.750573,-0.567343,-0.239624,32.3,83.983,1559177267.924085855
0.1688,0.2980,0.3200,-1.546,-1.562,-7.273,0.159769,-0.684318,-0.454139,32.3,83.996,1559177267.961790323
0.1601,0.3004,0.3150,-2.268,-2.471,-7.127,-0.107082,-0.645704,-0.693824,32.3,83.983,1559177267.999227285
0.1645,0.2958,0.3189,-3.852,-0.776,-8.888,0.048622,-0.914481,-1.167783,32.3,83.996,1559177268.037191868
0.1676,0.3072,0.3133,-3.340,-1.522,-8.877,0.432543,-1.545499,-1.393132,32.3,83.983,1559177268.075259209
0.1687,0.3060,0.3078,-3.004,-0.046,-5.715,-0.127870,-1.870051,-1.681403,32.2,83.996,1559177268.113047361
0.1687,0.3072,0.3078,-3.303,-0.138,-6.269,-0.332917,-1.380178,-1.347297,32.2,83.993,1559177268.151058435
0.1677,0.3003,0.3105,-4.213,0.502,-8.605,-1.327042,-0.849855,-1.095309,32.2,83.983,1559177268.189139605
0.1634,0.2912,0.3148,-3.625,0.984,-12.530,-1.346751,-0.604291,-1.124809,32.2,83.983,1559177268.227089405
0.1603,0.2832,0.3149,-4.295,1.305,-14.774,-1.204654,-0.554371,-1.398417,32.2,83.993,1559177268.265206099
0.1517,0.2753,0.3249,-4.579,1.327,-15.610,-1.276047,-0.108801,-1.398160,32.2,83.983,1559177268.303539038
0.1378,0.2640,0.3323,-3.328,1.863,-16.120,-1.357397,0.740547,-1.205681,32.2,83.996,1559177268.342071772
0.1249,0.2595,0.3398,-2.327,3.080,-16.048,-1.124348,1.334524,-1.170156,32.2,83.996,1559177268.380302668
0.1121,0.2447,0.3432,-1.977,3.215,-15.251,-0.583209,1.231974,-1.284209,32.2,83.980,1559177268.418347597
0.0939,0.2402,0.3496,-1.006,3.235,-15.522,-0.240075,1.340218,-1.461578,32.2,83.993,1559177268.456324577
0.0799,0.2346,0.3571,0.911,3.887,-16.601,-0.263938,1.626216,-1.566488,32.2,83.980,1559177268.494421959
0.0616,0.2347,0.3649,1.842,5.121,-15.089,0.133902,1.842383,-1.613101,32.2,83.993,1559177268.532543182
0.0444,0.2359,0.3659,1.832,4.605,-12.724,1.177613,1.725081,-1.626758,32.2,83.993,1559177268.570645809
0.0314,0.2406,0.3639,1.422,3.872,-11.462,1.607735,1.288362,-1.864783,32.2,83.980,1559177268.608389139
0.0206,0.2497,0.3659,1.833,3.646,-10.731,1.806222,0.910593,-2.282435,32.2,84.006,1559177268.645606995
0.0076,0.2646,0.3668,2.511,3.216,-12.005,2.088914,0.689025,-2.497461,32.2,83.993,1559177268.682441950
-0.0000,0.2715,0.3618,2.394,3.215,-12.970,1.981674,0.692681,-2.595317,32.2,83.980,1559177268.718948126
-0.1387,0.3578,0.2706,2.922,1.719,-6.698,0.849226,-2.571937,1.119815,32.2,83.989,1559177268.861732244
-0.1150,0.3622,0.2802,2.370,1.400,-8.559,0.658731,-2.725364,1.191468,32.2,83.976,1559177268.896518230
-0.0967,0.3712,0.2888,1.711,1.098,-9.438,0.704051,-2.528735,1.295963,32.2,83.976,1559177268.931868076
-0.0763,0.3768,0.2905,0.560,1.153,-9.140,0.469488,-2.059815,1.655059,32.2,83.976,1559177268.967361689
-0.0537,0.3836,0.2933,-0.566,0.593,-8.678,0.294882,-1.755593,2.109628,32.2,83.976,1559177269.002918243
-0.0376,0.3869,0.2966,-0.625,0.354,-8.783,0.092506,-1.675537,2.293274,32.2,83.989,1559177269.038848400
-0.0128,0.3902,0.3007,-1.658,-0.210,-8.485,-0.123378,-1.726437,2.473493,32.2,83.993,1559177269.074972153
0.0098,0.3901,0.3062,-1.608,0.083,-9.033,-0.718027,-1.563908,2.663249,32.2,83.989,1559177269.111529350
0.0303,0.3877,0.3051,-1.890,0.338,-10.061,-0.878318,-1.143614,3.002373,32.2,83.989,1559177269.148492813
0.0508,0.3807,0.3107,-2.913,0.360,-10.587,-1.209681,-0.845477,3.123404,32.2,83.976,1559177269.186253071
0.0724,0.3727,0.3108,-3.628,0.386,-10.715,-1.244152,-0.798525,3.111844,32.2,83.989,1559177269.224762678
0.0875,0.3657,0.3113,-4.002,0.649,-10.927,-1.202521,-0.867628,2.934977,32.2,83.989,1559177269.263218164
0.1048,0.3542,0.3103,-3.750,1.443,-11.616,-0.989882,-0.732253,2.929516,32.2,83.976,1559177269.302015781
0.1199,0.3496,0.3067,-4.088,1.984,-11.408,-0.660347,-0.466914,3.075607,32.2,83.989,1559177269.341083527
0.1308,0.3404,0.3047,-4.928,1.377,-12.527,-0.718150,-0.263171,3.189032,32.2,83.976,1559177269.380132675
0.1470,0.3335,0.2997,-5.655,1.188,-13.700,-1.016231,-0.176869,3.260751,32.2,83.989,1559177269.419582129
0.1589,0.3243,0.2976,-6.120,1.716,-14.367,-1.082342,-0.098494,3.332571,32.2,83.989,1559177269.459297657
0.1708,0.3163,0.2941,-5.732,2.298,-13.957,-0.821336,-0.090607,3.425359,32.2,83.986,1559177269.499028206
0.1880,0.3082,0.2931,-5.732,2.059,-14.383,-0.685919,-0.103982,3.269664,32.2,83.976,1559177269.538954020
0.2021,0.3013,0.2869,-5.329,2.503,-14.748,-0.401655,-0.206198,3.130073,32.2,83.989,1559177269.578585148
0.2118,0.2944,0.2795,-5.557,2.514,-15.210,-0.242530,-0.228265,2.937762,32.2,83.986,1559177269.618010759
0.2279,0.2920,0.2772,-5.866,2.265,-15.490,-0.246900,-0.127193,2.852793,32.2,83.986,1559177269.657679319
0.2409,0.2851,0.2751,-4.797,3.050,-15.101,-0.472717,0.053925,2.860715,32.2,84.002,1559177269.696997881
0.2528,0.2782,0.2730,-4.007,4.148,-12.186,-0.017579,0.172814,3.060034,32.2,83.989,1559177269.736573935
0.2658,0.2702,0.2695,-3.391,4.322,-12.053,0.953434,0.480072,3.493172,32.2,83.989,1559177269.776029825
0.2798,0.2633,0.2687,-3.793,3.905,-12.141,0.273804,0.729136,3.193768,32.2,83.989,1559177269.815356970
0.2852,0.2575,0.2724,-3.952,3.377,-12.643,0.154999,0.906944,3.078229,32.2,83.989,1559177269.854525089
0.2939,0.2484,0.2746,-4.074,3.115,-13.460,0.147830,1.106482,2.977991,32.2,83.989,1559177269.893186092
0.2983,0.2369,0.2784,-3.458,3.181,-13.175,0.387507,1.278776,2.889563,32.2,83.973,1559177269.931408405
0.3016,0.2335,0.2891,-3.443,2.438,-11.184,0.842475,1.340761,2.705812,32.2,83.986,1559177269.969613552
0.3006,0.2266,0.2959,-3.384,1.604,-11.035,1.019270,1.372797,2.451674,32.2,83.989,1559177270.007703304
0.2974,0.2232,0.3056,-3.198,1.185,-12.794,0.953590,1.689509,2.293221,32.2,83.973,1559177270.045681953
0.2921,0.2210,0.3099,-2.633,1.144,-13.025,0.778759,2.083712,2.220056,32.2,83.986,1559177270.083456755
0.2857,0.2165,0.3212,-2.684,1.224,-12.801,0.704036,2.360899,2.133714,32.2,83.986,1559177270.121143103
0.2728,0.2165,0.3328,-2.556,0.731,-12.594,0.939461,2.233715,2.009070,32.2,83.999,1559177270.158724785
0.2620,0.2154,0.3402,-2.528,0.011,-11.903,0.959405,1.950125,1.807453,32.2,83.989,1559177270.196146250
0.2894,0.2917,0.3106,-1.775,-2.480,-11.758,-0.229229,-1.790611,-1.088862,32.2,83.983,1559177270.347948551
0.2959,0.2928,0.3021,-1.959,-2.730,-11.507,-0.456059,-1.640601,-1.172383,32.2,83.995,1559177270.386325598
0.3002,0.2951,0.2978,-1.856,-2.326,-10.898,-0.852764,-1.337717,-1.280365,32.2,83.983,1559177270.424840689
0.3045,0.2928,0.2961,-2.325,-1.379,-10.708,-0.757509,-1.060856,-1.206475,32.2,83.983,1559177270.463317871
0.3066,0.2939,0.2865,-2.751,-1.787,-10.930,-0.569496,-1.069460,-1.181205,32.2,83.995,1559177270.502085209
0.3044,0.2916,0.2825,-2.989,-1.789,-12.150,-0.992170,-1.084293,-1.361430,32.2,83.986,1559177270.541003942
0.3066,0.2893,0.2824,-2.830,-1.211,-12.592,-1.252114,-0.795007,-1.434593,32.2,83.983,1559177270.579855204
0.3034,0.2916,0.2812,-2.824,-0.644,-11.506,-1.255506,-0.642519,-1.442508,32.2,83.983,1559177270.618761539
0.3002,0.2882,0.2814,-2.750,-0.269,-9.918,-1.213859,-0.745262,-1.591398,32.2,83.983,1559177270.657568693
0.2980,0.2848,0.2815,-2.711,0.338,-10.784,-1.255015,-0.709249,-1.699261,32.2,83.983,1559177270.696292877
0.2937,0.2848,0.2803,-2.996,0.434,-12.072,-1.350466,-0.463614,-1.639936,32.2,83.983,1559177270.734765053
0.2862,0.2826,0.2807,-3.465,0.433,-12.393,-1.352656,-0.284235,-1.659109,32.2,83.995,1559177270.773298740
0.2808,0.2804,0.2810,-3.088,1.423,-12.113,-1.131741,-0.284361,-1.846566,32.2,83.979,1559177270.811592579
0.2754,0.2815,0.2868,-2.270,1.943,-11.870,-0.897499,-0.401593,-1.876080,32.2,83.970,1559177270.849717855
0.2657,0.2827,0.2846,-2.398,2.093,-12.502,-0.612374,-0.264834,-1.922711,32.2,83.983,1559177270.888102770
0.2636,0.2839,0.2847,-2.989,1.764,-12.176,-0.652165,-0.061410,-1.931103,32.2,83.995,1559177270.926588058
0.2507,0.2816,0.2895,-3.125,1.832,-12.302,-0.647225,0.096056,-1.966565,32.2,83.983,1559177270.964870930
0.2410,0.2851,0.2887,-3.011,2.185,-12.067,-0.539152,0.068811,-2.079773,32.2,83.983,1559177271.003146410
0.2324,0.2852,0.3041,-2.503,2.726,-11.439,-0.276127,-0.004144,-2.144247,32.2,83.979,1559177271.041330814
0.2226,0.2886,0.2952,-2.474,2.438,-11.311,-0.047221,0.059855,-2.159809,32.2,83.983,1559177271.079712629
0.2086,0.2921,0.3041,-2.433,2.619,-11.745,-0.040068,0.261623,-2.125801,32.2,83.995,1559177271.118479013
0.1968,0.2910,0.3061,-2.418,2.709,-11.486,-0.093851,0.497667,-2.064746,32.2,83.979,1559177271.157461643
0.1860,0.2934,0.3095,-2.528,2.693,-11.043,-0.065992,0.668722,-2.024528,32.2,83.983,1559177271.196523190
0.1731,0.2934,0.3156,-2.481,2.660,-10.642,0.027774,0.698342,-2.044596,32.2,83.995,1559177271.235501528
0.1591,0.2947,0.3178,-2.357,2.615,-10.864,0.137791,0.629723,-2.050870,32.2,83.983,1559177271.274246931
0.1451,0.2981,0.3186,-2.149,2.626,-11.262,0.172669,0.581040,-2.096287,32.2,83.970,1559177271.312667608
0.1289,0.3005,0.3277,-1.757,3.062,-10.867,0.097163,0.651177,-2.074831,32.2,83.992,1559177271.350970268
0.1214,0.3005,0.3294,-1.262,3.250,-10.636,0.143557,0.776187,-2.029779,32.2,83.992,1559177271.389437675
0.1053,0.2983,0.3357,-1.240,3.280,-10.317,0.169586,0.671377,-2.001351,32.2,83.966,1559177271.427695274
0.0913,0.3030,0.3366,-0.862,3.153,-9.447,0.303755,0.423930,-2.047328,32.2,83.979,1559177271.465689898
0.0837,0.3030,0.3411,-0.460,3.307,-9.402,0.568413,0.095104,-2.066478,32.2,83.979,1559177271.503539085
0.0773,0.3042,0.3455,-0.629,3.281,-9.213,0.725433,-0.109789,-2.021749,32.2,83.983,1559177271.541000605
0.0686,0.3065,0.3446,-0.136,3.374,-8.507,0.734498,-0.189267,-1.956074,32.2,83.979,1559177271.578127146
0.0643,0.3088,0.3449,0.451,3.739,-7.629,0.631235,-0.303586,-1.787253,32.2,83.979,1559177271.615016222
0.0632,0.3157,0.3477,0.882,3.914,-7.639,0.557824,-0.352317,-1.615148,32.2,83.979,1559177271.652209759
0.3038,0.2346,0.2958,-3.621,0.364,-11.952,0.693189,1.008210,1.466141,32.2,83.973,1559177271.800296783
0.3006,0.2323,0.3014,-3.535,-0.097,-11.912,0.890237,1.006471,1.388752,32.2,83.989,1559177271.836869955
0.3006,0.2312,0.3041,-3.393,-0.360,-12.136,0.822270,1.072749,1.243054,32.2,83.989,1559177271.873489141
0.2941,0.2347,0.3099,-3.078,-0.858,-12.346,0.692695,1.178442,1.122338,32.2,84.002,1559177271.910730600
0.2909,0.2335,0.3183,-3.107,-1.286,-12.494,0.762603,1.238458,0.969961,32.2,83.976,1559177271.947910309
0.2834,0.2347,0.3241,-3.114,-1.629,-12.709,0.881273,1.158836,0.796861,32.2,83.985,1559177271.985199451
0.2812,0.2381,0.3284,-1.915,-1.416,-11.878,0.800940,1.094301,0.690341,32.2,83.989,1559177272.022717714
0.2694,0.2450,0.3359,-1.442,-1.194,-11.460,0.992376,1.225330,0.538548,32.2,83.989,1559177272.060584068
0.2661,0.2485,0.3388,-1.954,-1.520,-12.430,1.144179,1.311567,0.382620,32.2,83.989,1559177272.098714352
0.2553,0.2554,0.3394,-2.078,-2.072,-12.319,1.461581,1.391395,0.378560,32.2,83.985,1559177272.137306213
0.2466,0.2634,0.3441,-1.869,-2.722,-11.371,1.582827,1.342303,0.218691,32.2,83.989,1559177272.176289797
0.2358,0.2794,0.3448,-2.036,-3.169,-10.773,1.561648,1.359071,-0.050653,32.2,83.989,1559177272.215366840
0.2260,0.2875,0.3454,-1.361,-3.323,-9.970,1.350846,1.373149,-0.401837,32.2,83.976,1559177272.254451990
0.2098,0.3024,0.3464,-0.763,-3.126,-9.529,1.408542,1.451880,-0.532895,32.2,83.989,1559177272.293174267
0.1989,0.3127,0.3457,-0.563,-3.109,-9.656,1.578139,1.647846,-0.522656,32.2,83.976,1559177272.331779480
0.1816,0.3230,0.3467,-0.488,-3.268,-10.070,1.645671,1.748889,-0.596894,32.2,83.973,1559177272.370073318
0.1632,0.3380,0.3424,-0.610,-3.903,-8.252,1.748623,1.588063,-0.776301,32.2,83.973,1559177272.408078194
0.1491,0.3494,0.3378,-0.407,-4.100,-8.036,1.583232,1.381871,-1.059174,32.2,83.989,1559177272.445677996
0.1361,0.3632,0.3304,-0.280,-3.753,-8.453,1.608269,1.266647,-1.225115,32.2,83.973,1559177272.482972383
0.1166,0.3747,0.3261,0.110,-3.229,-8.139,1.878204,1.099594,-1.381670,32.2,83.985,1559177272.519781113
0.1046,0.3885,0.3174,0.302,-3.544,-7.432,1.913244,1.040353,-1.475584,32.2,83.985,1559177272.556222916
0.0862,0.3977,0.3075,0.553,-3.565,-6.639,1.744409,1.148818,-1.450529,32.2,83.973,1559177272.592676640
0.0678,0.4115,0.2991,0.807,-3.387,-5.910,1.667728,1.035505,-1.494664,32.2,83.985,1559177272.628955364
0.0591,0.4161,0.2887,1.184,-3.411,-5.541,1.664112,0.772059,-1.702419,32.2,83.976,1559177272.665207148
0.0365,0.4219,0.2818,1.675,-3.191,-5.860,1.802711,0.541478,-1.847603,32.2,83.985,1559177272.701524734
0.0256,0.4322,0.2689,2.118,-2.860,-6.416,1.887189,0.486977,-1.766176,32.2,83.985,1559177272.737664223
0.0115,0.4380,0.2575,2.425,-2.716,-4.884,1.914902,0.524472,-1.778003,32.2,83.989,1559177272.773971558
-0.0047,0.4449,0.2475,2.886,-2.490,-4.400,1.720852,0.392363,-1.916188,32.2,83.973,1559177272.810010195
-0.0220,0.4507,0.2349,2.615,-2.352,-4.791,1.543542,0.152811,-2.106278,32.2,83.985,1559177272.846177101
-0.0350,0.4496,0.2288,2.935,-3.195,-5.197,1.121658,-0.132669,-2.558840,32.2,83.973,1559177272.882406950
-0.0511,0.4474,0.2174,3.149,-1.248,-5.252,1.694183,-0.205516,-2.366154,32.2,83.976,1559177272.918354034
-0.0663,0.4487,0.2032,3.237,-2.041,-4.829,1.951993,-0.384624,-2.304285,32.2,83.973,1559177272.954202890
-0.0781,0.4476,0.1971,3.096,-1.634,-3.575,1.935234,-0.649035,-2.418912,32.2,83.985,1559177272.990166903
-0.0910,0.4431,0.1882,2.974,-1.596,-3.574,1.624076,-1.059916,-2.477201,32.2,83.973,1559177273.026293039
-0.1061,0.4409,0.1890,2.862,-1.230,-4.100,1.258747,-1.264087,-2.437594,32.2,83.985,1559177273.062531471
-0.1147,0.4329,0.1854,3.234,-0.968,-5.151,1.153729,-1.353719,-2.212202,32.2,83.985,1559177273.098799706
-0.1233,0.4273,0.1844,3.489,-0.029,-5.911,1.115784,-1.311249,-2.064984,32.2,83.985,1559177273.135271788
-0.1319,0.4239,0.1862,3.510,0.646,-6.068,1.324067,-1.475993,-1.926690,32.2,83.973,1559177273.171555042
-0.1351,0.4194,0.1850,3.279,0.490,-6.194,1.841476,-1.755704,-1.644722,32.2,83.973,1559177273.208099365
-0.1372,0.4194,0.1851,3.528,0.444,-5.970,1.659983,-2.035133,-1.528521,32.2,83.973,1559177273.244833231
0.2470,0.3319,0.2560,-4.268,0.170,-13.022,0.576870,0.442496,2.003517,32.1,83.995,1559177273.393411398
0.2546,0.3318,0.2556,-4.184,-0.312,-13.568,0.249296,0.760074,1.951862,32.1,83.995,1559177273.431329727
0.2600,0.3295,0.2553,-3.791,-0.437,-13.386,0.510825,0.828190,1.834775,32.1,83.995,1559177273.469271421
0.2675,0.3260,0.2548,-3.958,-0.938,-13.257,0.595463,0.908948,1.631492,32.1,83.995,1559177273.507386923
0.2707,0.3272,0.2574,-3.381,-0.895,-13.467,0.423567,1.210105,1.517821,32.1,83.995,1559177273.545823336
0.2719,0.3215,0.2627,-3.268,-0.787,-14.100,0.388249,1.733290,1.582116,32.1,83.969,1559177273.584134579
0.2708,0.3215,0.2682,-3.241,-1.686,-14.493,0.536436,1.991488,1.605430,32.1,83.982,1559177273.622649670
0.2687,0.3226,0.2765,-3.377,-2.695,-13.982,0.558003,2.251718,1.338038,32.1,83.982,1559177273.661298752
0.2612,0.3204,0.2837,-3.599,-3.628,-14.358,0.518213,2.426818,1.054863,32.1,83.992,1559177273.699921131
0.2526,0.3238,0.2911,-3.633,-4.228,-14.508,0.497268,2.621010,0.770377,32.1,83.969,1559177273.738615513
0.2418,0.3250,0.3012,-3.413,-4.406,-13.758,0.786490,2.871186,0.489964,32.1,83.992,1559177273.777320623
0.2192,0.3297,0.3066,-2.986,-5.227,-12.950,1.118644,2.958938,0.365983,32.1,83.992,1559177273.815983534
0.2041,0.3343,0.3088,-2.537,-5.823,-11.906,1.595607,2.798773,0.091042,32.1,83.969,1559177273.854888439
0.1857,0.3515,0.3113,-2.503,-6.520,-11.074,1.615619,2.574609,-0.478132,32.1,83.995,1559177273.894082546
0.1640,0.3642,0.3126,-2.440,-6.658,-10.340,1.192378,2.408743,-0.888555,32.1,83.979,1559177273.933235168
0.1435,0.3711,0.3165,-1.515,-6.281,-10.043,0.618372,2.416922,-1.116112,32.1,83.992,1559177273.972166300
0.1209,0.3724,0.3163,-0.944,-5.625,-10.235,0.226917,2.633930,-1.162995,32.1,83.979,1559177274.011007547
0.0918,0.3771,0.3125,-0.819,-5.036,-9.438,0.878095,2.746995,-0.879984,32.1,83.979,1559177274.049405336
0.0734,0.3806,0.3108,-1.200,-5.037,-6.975,1.446118,2.517805,-0.687645,32.1,83.992,1559177274.087906122
0.0518,0.3933,0.2999,-0.569,-4.822,-5.446,1.725687,2.017808,-0.757414,32.1,83.992,1559177274.126339436
0.0312,0.4002,0.2902,0.492,-4.820,-4.508,1.387110,1.625600,-0.886147,32.1,83.979,1559177274.164670944
0.0194,0.4037,0.2840,1.901,-4.545,-4.163,0.734320,1.431832,-1.071777,32.1,83.982,1559177274.202884912
0.0032,0.4061,0.2781,3.011,-3.765,-4.025,0.713462,1.493687,-1.135323,32.1,83.979,1559177274.241229296
-0.0130,0.4096,0.2681,2.584,-3.650,-3.779,1.100045,1.491602,-1.179595,32.1,83.979,1559177274.279300690
-0.0271,0.4142,0.2608,1.337,-3.813,-2.541,1.137046,1.129821,-1.258872,32.1,83.979,1559177274.317455769
-0.0422,0.4109,0.2507,2.112,-3.449,-2.446,0.883331,0.569169,-1.560931,32.1,83.979,1559177274.355823278
-0.0562,0.4121,0.2460,3.302,-2.423,-2.515,0.905763,0.225994,-1.619305,32.1,83.979,1559177274.393954754
-0.0638,0.4133,0.2396,3.524,-2.037,-2.721,1.062272,-0.062313,-1.502811,32.1,83.979,1559177274.431799650
-0.0735,0.4110,0.2347,3.353,-1.629,-3.026,0.788782,-0.218533,-1.379126,32.1,83.966,1559177274.469597101
-0.0810,0.4111,0.2310,3.627,-1.448,-2.628,0.759088,-0.296744,-1.408216,32.1,83.992,1559177274.507502079
-0.0864,0.4066,0.2299,3.802,-0.772,-2.406,0.605770,-0.645847,-1.467495,32.1,83.992,1559177274.545098543
-0.0896,0.4009,0.2314,4.028,-0.422,-2.749,0.593102,-0.934366,-1.432068,32.1,83.979,1559177274.582325220
-0.0960,0.4009,0.2304,4.129,-0.745,-3.888,0.589326,-0.969243,-1.270071,32.1,83.979,1559177274.619512081
-0.0949,0.3975,0.2303,3.532,-0.555,-4.215,0.407233,-0.844741,-1.185999,32.1,83.975,1559177274.656630993
-0.0960,0.3929,0.2358,3.001,-0.630,-3.570,0.397679,-1.138443,-1.245269,32.1,83.992,1559177274.693460941
-0.1082,0.3245,0.3177,1.750,3.629,-8.517,0.692417,0.748402,0.958903,32.1,83.975,1559177274.838437796
-0.1083,0.3348,0.3055,1.654,3.445,-7.840,0.674348,0.690952,1.204093,32.1,83.972,1559177274.874160528
-0.1052,0.3462,0.3000,1.050,2.653,-7.089,0.464931,0.801421,1.594781,32.1,83.985,1559177274.910034657
-0.1031,0.3564,0.2945,0.917,2.342,-7.030,0.025110,0.978794,1.857814,32.1,83.998,1559177274.945780277
-0.0999,0.3644,0.2889,0.922,1.999,-5.683,0.206131,0.861695,1.911136,32.1,83.985,1559177274.981133461
-0.0914,0.3758,0.2858,1.091,1.841,-4.441,0.452287,0.433990,1.856821,32.1,83.985,1559177275.016713858
-0.0829,0.3860,0.2786,0.689,0.920,-5.018,0.475052,0.249081,1.904711,32.1,83.985,1559177275.052189112
-0.0722,0.3939,0.2699,0.500,0.340,-4.980,0.188884,0.320295,1.976381,32.1,83.985,1559177275.088100195
-0.0636,0.4053,0.2709,0.778,-0.016,-4.666,-0.246366,0.387806,2.114512,32.1,83.972,1559177275.124227524
-0.0518,0.4109,0.2703,0.873,0.093,-3.474,-0.537502,0.299159,2.150495,32.1,83.985,1559177275.160849333
-0.0390,0.4291,0.2697,0.288,0.221,-3.320,-0.479321,0.127634,2.195834,32.1,83.985,1559177275.198192120
-0.0249,0.4165,0.2702,-0.199,0.129,-3.874,-0.248238,-0.161843,2.164348,32.1,83.985,1559177275.236015320
-0.0142,0.4233,0.2710,-0.802,-0.514,-4.059,0.215362,-0.496784,2.092545,32.1,83.998,1559177275.274145842
0.0041,0.4255,0.2700,-0.980,-1.108,-3.111,0.007614,-0.929868,2.047522,32.1,83.972,1559177275.312371254
0.0235,0.4288,0.2704,-1.146,-0.959,-3.128,-0.505997,-1.013367,2.085743,32.1,83.972,1559177275.350337505
0.0439,0.4310,0.2747,-0.976,0.164,-4.396,-0.947255,-0.946686,2.224281,32.1,83.985,1559177275.388612270
0.0644,0.4252,0.2762,-1.566,0.969,-4.978,-0.901059,-0.978722,2.263931,32.1,83.985,1559177275.427073002
0.0828,0.4228,0.2807,-2.342,0.652,-5.950,-0.463741,-1.225669,2.172056,32.1,83.972,1559177275.465569973
0.1022,0.4215,0.2782,-2.745,0.629,-6.986,-0.149820,-1.473927,2.108947,32.1,83.985,1559177275.504536390
0.1270,0.4191,0.2769,-3.300,0.698,-7.076,-0.083737,-1.439729,2.167006,32.1,83.985,1559177275.543252945
0.1453,0.4190,0.2731,-3.936,0.532,-6.895,-0.410239,-1.333423,2.224800,32.1,83.985,1559177275.581608772
0.1636,0.4110,0.2693,-4.424,0.864,-7.735,-0.647308,-1.241793,2.265089,32.1,83.985,1559177275.620091915
0.1863,0.4063,0.2694,-4.649,1.299,-8.999,-0.657979,-1.139529,2.377225,32.1,83.985,1559177275.658842087
0.2068,0.3982,0.2669,-5.356,1.329,-10.140,-0.704354,-1.056025,2.451098,32.1,83.985,1559177275.698029995
0.2251,0.3878,0.2603,-6.213,0.963,-10.718,-0.745868,-0.912139,2.625136,32.1,83.998,1559177275.737526655
0.2435,0.3775,0.2620,-6.553,0.801,-11.381,-0.948706,-0.817625,2.803473,32.1,83.982,1559177275.777283192
0.2641,0.3614,0.2580,-6.349,1.098,-12.284,-1.227808,-0.722233,2.864443,32.1,83.982,1559177275.816755295
0.2760,0.3522,0.2600,-6.470,1.423,-13.345,-1.256712,-0.634036,2.882201,32.1,83.995,1559177275.856577873
0.2976,0.3327,0.2573,-6.460,0.907,-14.670,-1.175109,-0.562748,2.812208,32.1,83.998,1559177275.896427870
0.3085,0.3190,0.2566,-6.755,0.385,-15.332,-0.857181,-0.470891,2.700995,32.1,83.982,1559177275.936240673
0.3215,0.3052,0.2531,-6.535,0.298,-15.490,-0.784159,-0.371349,2.570588,32.1,83.985,1559177275.976208925
0.3324,0.2904,0.2551,-5.935,0.455,-16.151,-0.936696,-0.118970,2.447012,32.1,83.969,1559177276.016064405
0.3411,0.2778,0.2573,-5.390,0.681,-17.062,-0.912401,0.249293,2.457955,32.1,83.982,1559177276.056001186
0.3455,0.2652,0.2610,-5.816,0.091,-17.794,-0.905062,0.731862,2.443692,32.1,83.982,1559177276.095844269
0.3499,0.2492,0.2675,-6.038,-0.594,-18.497,-0.899614,1.042924,2.255353,32.1,83.982,1559177276.135412216
0.0285,0.3444,0.3185,-0.773,0.647,-9.599,-0.285047,-2.182926,-1.296345,32.1,83.991,1559177276.292926073
0.0360,0.3455,0.3222,-1.006,-0.238,-9.540,-0.078713,-2.316065,-1.255941,32.1,83.978,1559177276.332082510
0.0468,0.3363,0.3242,-1.050,0.876,-8.210,-0.363634,-2.408569,-1.436978,32.1,83.978,1559177276.371209621
0.0555,0.3283,0.3264,-2.302,1.218,-9.269,-0.648431,-2.395829,-1.447347,32.0,83.978,1559177276.410114050
0.0620,0.3202,0.3301,-3.129,0.779,-11.194,-0.910768,-2.384560,-1.376207,32.0,83.978,1559177276.449065924
0.0729,0.3042,0.3362,-2.597,1.288,-13.346,-1.358310,-2.203638,-1.467341,32.0,83.982,1559177276.488034725
0.0784,0.2928,0.3385,-2.621,1.779,-14.450,-1.029606,-1.949527,-1.341899,32.0,83.975,1559177276.527305365
0.0839,0.2813,0.3423,-2.792,2.196,-14.907,-1.160900,-1.676388,-1.474210,32.0,83.991,1559177276.566576481
0.0872,0.2711,0.3474,-3.274,2.851,-14.207,-0.708675,-1.580431,-1.501084,32.0,83.991,1559177276.605849504
0.0894,0.2631,0.3500,-3.798,2.409,-14.518,-0.541548,-1.522876,-1.622663,32.0,83.991,1559177276.645037889
0.0905,0.2562,0.3499,-3.720,1.755,-15.702,-0.382404,-1.461286,-1.758351,32.0,83.975,1559177276.684050560
0.0970,0.2482,0.3535,-4.380,1.536,-16.428,-0.082977,-1.098384,-1.822518,32.0,83.991,1559177276.723425150
0.0950,0.2425,0.3618,-4.700,1.710,-16.269,0.042311,-0.784207,-1.940444,32.0,83.988,1559177276.762889147
0.0950,0.2391,0.3618,-4.029,2.730,-15.557,0.079459,-0.481291,-2.064624,32.0,83.991,1559177276.802219629
0.0928,0.2380,0.3646,-3.653,3.535,-15.111,0.156393,-0.112187,-2.131396,32.0,83.991,1559177276.841183186
0.0853,0.2369,0.3718,-3.722,3.584,-15.162,0.117741,0.227424,-2.094210,32.0,83.991,1559177276.879708529
0.0811,0.2323,0.3747,-3.686,3.354,-15.703,-0.025317,0.715530,-2.058066,32.0,83.988,1559177276.918012381
0.0692,0.2290,0.3808,-3.114,3.787,-15.532,0.068171,1.158463,-2.079807,32.0,83.975,1559177276.955850601
0.0531,0.2302,0.3872,-2.883,4.553,-14.738,0.521924,1.308809,-2.030489,32.0,83.988,1559177276.993616343
0.0412,0.2371,0.3865,-2.505,4.913,-14.204,0.697031,1.572865,-2.051066,32.0,83.988,1559177277.030986547
0.0250,0.2406,0.3833,-1.922,4.982,-13.525,0.991602,1.781265,-2.001394,32.0,83.991,1559177277.068181038
0.0067,0.2464,0.3830,-1.775,4.342,-13.554,0.887184,2.119973,-1.907998,32.0,83.988,1559177277.105025291
-0.0117,0.2510,0.3773,-1.566,4.057,-13.660,0.494042,2.617239,-1.823159,32.0,83.988,1559177277.141718388
-0.0419,0.2512,0.3694,-1.043,4.277,-13.105,0.680537,2.896658,-1.685379,32.0,83.988,1559177277.178276300
-0.0689,0.2605,0.3600,-0.544,4.703,-12.365,1.031137,2.964001,-1.521337,32.0,83.975,1559177277.214920521
-0.0926,0.2640,0.3491,0.159,4.839,-11.561,1.499033,2.987607,-1.348515,32.0,83.975,1559177277.251676083
-0.1165,0.2732,0.3287,0.721,4.199,-10.549,1.782867,2.931323,-1.107002,32.0,83.988,1559177277.288760900
-0.1435,0.2871,0.3098,1.042,3.524,-9.860,1.424395,3.041192,-0.907245,32.0,83.988,1559177277.325407267
-0.1598,0.2929,0.2931,1.536,3.396,-8.953,1.351095,2.950196,-0.781480,32.0,83.975,1559177277.361723185
-0.1836,0.2975,0.2713,1.894,2.885,-8.731,1.127150,2.920596,-0.603364,32.0,83.975,1559177277.397872686
-0.1988,0.3056,0.2476,2.051,2.197,-8.857,1.096547,2.799673,-0.544653,32.0,83.975,1559177277.433784008
-0.2118,0.3068,0.2266,2.759,1.810,-8.240,1.120880,2.602618,-0.336228,32.0,83.975,1559177277.469729900
-0.2227,0.3149,0.2027,2.702,1.692,-7.474,0.815694,2.463214,-0.320922,32.0,83.988,1559177277.505620718
-0.2356,0.3172,0.1871,3.031,2.399,-6.658,0.466464,2.256615,-0.035389,32.0,83.988,1559177277.541499138
-0.2400,0.3195,0.1710,3.400,1.498,-6.618,0.273819,1.962520,0.241251,32.0,83.988,1559177277.577266693
0.3086,0.3030,0.2470,-6.169,-0.932,-17.613,-0.625544,0.561231,2.438319,32.0,83.994,1559177277.719308376
0.3162,0.2961,0.2519,-6.184,-1.704,-17.517,-0.270270,0.777934,2.101545,32.0,83.994,1559177277.755519867
0.3216,0.2847,0.2543,-6.036,-2.431,-17.526,-0.115709,1.143437,1.769193,32.0,83.994,1559177277.791810751
0.3206,0.2813,0.2611,-5.450,-2.349,-17.472,-0.038019,1.626147,1.553782,32.0,83.997,1559177277.828713894
0.3185,0.2745,0.2721,-4.978,-2.084,-17.576,-0.011904,2.106413,1.367230,32.0,83.981,1559177277.865922213
0.3089,0.2677,0.2848,-3.874,-1.895,-17.315,0.064665,2.658430,1.222821,32.0,83.985,1559177277.903678656
0.2982,0.2654,0.3004,-3.694,-0.980,-16.042,0.486193,2.858763,1.095603,32.0,83.981,1559177277.942164183
0.2821,0.2667,0.3122,-3.535,-0.975,-15.480,0.782875,3.025152,0.872663,32.0,83.985,1559177277.980474710
0.2638,0.2702,0.3268,-3.131,-1.250,-14.480,0.980979,3.182403,0.692442,32.0,83.994,1559177278.018898964
0.2412,0.2726,0.3335,-2.442,-1.790,-13.680,0.892634,3.393577,0.561701,32.0,83.981,1559177278.057500839
0.2239,0.2772,0.3427,-2.319,-2.323,-13.051,0.735062,3.511160,0.429812,32.0,83.994,1559177278.096330404
0.1959,0.2785,0.3538,-1.813,-2.684,-11.946,0.907370,3.660245,0.189240,32.0,83.981,1559177278.135383368
0.1625,0.2866,0.3584,-1.355,-2.768,-10.185,1.111454,3.640183,-0.156409,32.0,83.968,1559177278.174418688
0.1409,0.2970,0.3583,-1.105,-3.034,-8.893,1.578129,3.403769,-0.382110,32.0,83.981,1559177278.213413477
0.1096,0.3097,0.3587,-0.643,-3.246,-7.828,1.580824,3.146820,-0.544871,32.0,83.981,1559177278.252313614
0.0804,0.3167,0.3522,-1.333,-4.005,-6.834,1.208939,2.892873,-0.904317,32.0,83.994,1559177278.290840864
0.0567,0.3225,0.3495,1.292,-1.776,-6.265,0.962844,2.578702,-0.796236,32.0,83.994,1559177278.329460382
0.0383,0.3340,0.3424,0.991,-2.834,-5.168,1.840456,2.470644,-0.538525,32.0,83.981,1559177278.367945433
0.0156,0.3444,0.3315,1.499,-3.145,-4.287,1.787807,1.972440,-0.662201,32.0,83.981,1559177278.406281233
-0.0007,0.3548,0.3229,1.761,-3.564,-4.282,1.837518,1.486515,-0.567769,32.0,83.981,1559177278.444559813
-0.0126,0.3640,0.3114,2.133,-3.739,-4.237,1.407578,1.250842,-0.609111,32.0,83.978,1559177278.482620239
-0.0256,0.3697,0.3026,2.574,-2.880,-3.737,1.195035,1.034964,-0.636575,32.0,83.978,1559177278.520365000
-0.0343,0.3755,0.2949,2.714,-2.529,-3.483,1.367780,0.742473,-0.545724,32.0,83.978,1559177278.557615757
-0.0397,0.3835,0.2871,3.075,-2.403,-3.083,1.664952,0.425447,-0.528578,32.0,83.978,1559177278.594575167
-0.0452,0.3904,0.2766,3.353,-1.897,-2.996,1.612698,0.003947,-0.608261,32.0,83.968,1559177278.631390810
-0.0464,0.3984,0.2685,3.708,-1.752,-2.703,1.474960,-0.122711,-0.870578,32.0,83.981,1559177278.668244362
-0.0539,0.4007,0.2621,3.709,-1.575,-2.981,1.006925,-0.286896,-1.152435,32.0,83.981,1559177278.705119848
-0.0604,0.4041,0.2557,3.870,-1.600,-2.883,1.358686,-0.522338,-1.053801,32.0,83.981,1559177278.742222548
-0.0637,0.4099,0.2519,3.927,-1.569,-2.720,1.670389,-0.744860,-0.856056,32.0,83.981,1559177278.779385805
-0.0616,0.4121,0.2477,3.646,-1.418,-2.735,0.893308,-0.953267,-1.024949,32.0,83.991,1559177278.816350937
-0.0637,0.4099,0.2478,3.901,-0.848,-3.061,0.337373,-1.225205,-1.122075,32.0,83.978,1559177278.853693724
-0.0615,0.4064,0.2517,3.759,-0.819,-3.798,0.296147,-1.363560,-1.062796,32.0,83.968,1559177278.891066313
-0.0594,0.4053,0.2529,3.611,-0.525,-3.952,0.342663,-1.602378,-1.059794,32.0,83.981,1559177278.928563356
-0.0572,0.3984,0.2582,3.360,-0.542,-4.464,0.178891,-1.758825,-1.134439,32.0,83.991,1559177278.966132164
-0.0528,0.3984,0.2621,3.101,-0.636,-5.006,0.067063,-1.779373,-1.093557,32.0,83.978,1559177279.004026890
-0.0485,0.3938,0.2672,2.876,-0.423,-5.260,0.041798,-1.907169,-1.033007,32.0,83.978,1559177279.041618824
-0.0398,0.3892,0.2695,2.844,0.112,-5.194,-0.011241,-2.155169,-1.030659,32.0,83.991,1559177279.079011917
-0.0355,0.3869,0.2787,2.480,0.194,-5.619,-0.021559,-2.335401,-0.957466,32.0,83.991,1559177279.116240501
-0.0247,0.3811,0.2836,2.087,-0.242,-6.100,-0.134345,-2.375268,-0.863934,32.0,83.978,1559177279.153882027
-0.0138,0.3765,0.2897,1.110,-0.634,-7.346,-0.184696,-2.363594,-0.708663,32.0,83.978,1559177279.191617966
-0.2540,0.3071,0.1458,4.516,2.546,-5.417,0.740528,2.035332,0.729203,32.0,83.975,1559177279.344813585
-0.2541,0.3196,0.1323,4.288,2.000,-4.914,0.379925,1.805632,0.921697,32.0,83.987,1559177279.383468151
-0.2553,0.3287,0.1161,4.409,1.587,-3.959,-0.031134,1.596346,1.042717,32.0,83.987,1559177279.422417402
-0.2532,0.3356,0.1092,4.489,1.430,-3.907,0.006671,1.260841,1.194172,32.0,83.987,1559177279.461288214
-0.2533,0.3458,0.1011,4.802,1.363,-3.862,-0.057689,1.076847,1.275624,32.0,83.984,1559177279.499582767
-0.2459,0.3583,0.0912,4.941,1.089,-3.250,-0.051841,0.903946,1.455709,32.0,84.000,1559177279.537612915
-0.2406,0.3674,0.0856,4.355,0.836,-2.746,-0.377702,0.698891,1.688970,32.0,83.987,1559177279.575603008
-0.2310,0.3799,0.0851,4.166,0.458,-1.474,-0.777357,0.579238,1.861547,32.0,83.987,1559177279.613377810
-0.2181,0.3913,0.0872,3.699,0.245,-1.044,-1.078509,0.252861,1.953240,32.0,83.984,1559177279.651230335
-0.2085,0.4004,0.0895,3.599,-0.090,-1.820,-1.197734,-0.129989,2.033056,32.0,83.971,1559177279.689165354
-0.1945,0.4128,0.0970,3.786,-0.458,-2.720,-1.417902,-0.464050,2.087424,32.0,83.975,1559177279.727373362
-0.1795,0.4230,0.1085,3.477,-1.019,-2.498,-1.520433,-0.691199,2.188895,32.0,83.984,1559177279.766079187
-0.1655,0.4286,0.1187,2.488,-1.239,-2.249,-1.688304,-0.914900,2.235796,32.0,83.987,1559177279.805186510
-0.1418,0.4331,0.1365,1.865,-1.004,-1.852,-1.980742,-1.458442,2.209285,32.0,83.987,1559177279.844405174
-0.1234,0.4410,0.1546,2.124,-0.904,-3.468,-2.095353,-1.910045,2.135528,32.0,83.984,1559177279.883957863
-0.1051,0.4386,0.1753,1.984,-0.526,-4.962,-1.950149,-2.188818,2.226604,32.0,83.997,1559177279.923655748
-0.0770,0.4407,0.1929,1.162,-1.071,-5.761,-1.875481,-2.217968,2.249544,32.0,83.984,1559177279.963490486
-0.0532,0.4372,0.2147,0.353,-1.486,-6.450,-1.758391,-2.264645,2.164032,32.0,83.984,1559177280.003584385
-0.0306,0.4371,0.2244,-0.926,-1.353,-6.629,-1.651005,-2.526519,2.052270,32.0,83.984,1559177280.043869972
-0.0014,0.4323,0.2418,-1.020,-0.731,-7.674,-1.566694,-2.852043,1.953417,32.0,83.984,1559177280.083926439
0.0277,0.4276,0.2510,-1.149,-0.437,-8.678,-1.540261,-2.971933,1.893605,32.0,83.984,1559177280.123734236
0.0515,0.4230,0.2606,-1.715,-0.577,-9.426,-1.435310,-2.897471,1.898913,32.0,83.984,1559177280.163435698
0.0807,0.4125,0.2685,-2.931,-0.685,-9.550,-1.476149,-2.819971,1.870778,32.0,83.984,1559177280.203071117
0.1087,0.4044,0.2750,-3.779,-0.332,-10.042,-1.491747,-2.864162,1.802302,32.0,83.984,1559177280.243003130
0.1303,0.3963,0.2792,-3.729,0.668,-11.084,-1.531365,-2.863914,1.751491,32.0,83.984,1559177280.282769680
0.1627,0.3882,0.2760,-3.463,1.205,-11.845,-1.211656,-2.733523,1.871290,32.0,83.984,1559177280.322500706
0.1854,0.3744,0.2760,-3.384,1.310,-12.171,-1.168563,-2.285806,1.982016,32.0,83.997,1559177280.362008572
0.2037,0.3697,0.2750,-4.085,1.723,-11.844,-1.153029,-1.958942,1.995858,32.0,83.984,1559177280.401233435
0.2232,0.3571,0.2698,-4.872,2.060,-11.795,-1.075125,-1.772162,2.060432,32.0,83.984,1559177280.440458536
0.2437,0.3478,0.2686,-5.332,2.269,-12.164,-0.728463,-1.752950,2.187567,32.0,83.997,1559177280.479547501
0.2610,0.3398,0.2594,-5.112,2.729,-12.937,-0.619694,-1.585922,2.249837,32.0,83.984,1559177280.518872738
0.2815,0.3283,0.2527,-5.254,3.093,-12.569,-0.672487,-1.340123,2.380198,32.0,83.997,1559177280.558274746
0.2956,0.3179,0.2491,-5.585,3.251,-13.223,-0.803246,-0.966635,2.532176,32.0,83.997,1559177280.597728014
0.3096,0.3053,0.2469,-5.832,2.964,-14.331,-0.824933,-0.614066,2.653466,32.0,83.997,1559177280.637472630
0.3226,0.2950,0.2448,-6.082,2.294,-15.417,-0.582980,-0.279523,2.653938,32.0,83.994,1559177280.677321434
-0.0752,0.3631,0.2767,4.247,0.606,-4.605,0.056461,-1.632837,-0.632778,31.9,83.977,1559177280.837731123
-0.0655,0.3597,0.2816,4.161,0.922,-5.351,-0.292181,-1.771377,-0.573567,31.9,83.977,1559177280.878197432
-0.0600,0.3517,0.2866,3.821,1.260,-6.373,-0.415781,-1.908003,-0.401079,31.9,83.981,1559177280.918729067
-0.0481,0.3493,0.2942,3.739,1.015,-7.202,-0.552810,-1.883135,-0.260105,31.9,83.977,1559177280.959142447
-0.0362,0.3413,0.3030,3.345,0.617,-7.695,-0.648886,-1.771878,-0.217953,31.9,83.977,1559177280.999108076
-0.0254,0.3378,0.3078,3.162,0.446,-7.703,-1.111859,-1.714153,-0.427358,31.9,83.990,1559177281.039443016
-0.0210,0.3275,0.3170,2.492,1.127,-7.869,-1.289788,-1.872903,-0.563989,31.9,83.977,1559177281.079564333
-0.0101,0.3149,0.3259,2.363,1.780,-8.899,-1.276062,-2.097331,-0.651113,31.9,83.977,1559177281.119307756
0.0040,0.3046,0.3332,2.316,2.043,-9.411,-1.236572,-2.254994,-0.784942,31.9,83.977,1559177281.158845425
0.0148,0.2965,0.3366,1.790,1.981,-8.900,-0.600644,-2.441618,-0.900132,31.9,83.990,1559177281.197936296
0.0332,0.2884,0.3410,0.732,1.635,-9.077,-0.504141,-2.729119,-1.210650,31.9,83.977,1559177281.236835480
0.0440,0.2793,0.3471,-0.140,1.542,-10.980,-0.743264,-2.829829,-1.500250,31.9,83.990,1559177281.275609970
0.0570,0.2746,0.3450,-0.098,2.324,-12.270,-0.879085,-2.650189,-1.623757,31.9,84.003,1559177281.314105511
0.0700,0.2620,0.3456,-0.084,3.109,-12.739,-0.986042,-2.358868,-1.637952,31.9,83.974,1559177281.352681875
0.0766,0.2517,0.3533,-0.828,3.674,-12.404,-0.995133,-1.979776,-1.624793,31.9,83.990,1559177281.391288519
0.0799,0.2426,0.3545,-1.442,3.749,-12.787,-1.050672,-1.735841,-1.638727,31.9,83.990,1559177281.429553270
0.0853,0.2300,0.3568,-2.292,3.913,-13.716,-1.136646,-1.480529,-1.694694,31.9,83.987,1559177281.467676401
0.0919,0.2174,0.3591,-1.871,4.428,-14.306,-1.298819,-1.153892,-1.714848,31.9,83.990,1559177281.505550623
0.0887,0.2072,0.3619,-2.023,4.969,-14.340,-0.881209,-0.801215,-1.576998,31.9,83.990,1559177281.543510675
0.0888,0.1969,0.3645,-1.824,5.521,-14.386,-0.289873,-0.576133,-1.456792,31.9,83.990,1559177281.581345558
0.0899,0.1946,0.3672,-1.581,5.717,-14.516,-0.003105,-0.342970,-1.547710,31.9,83.990,1559177281.619536161
0.0856,0.1924,0.3688,-0.652,6.050,-14.688,0.126186,-0.023375,-1.705193,31.9,83.990,1559177281.657938719
0.0803,0.1890,0.3718,0.126,6.193,-14.052,0.208197,0.314943,-1.874333,31.9,83.987,1559177281.696195126
0.0727,0.1890,0.3735,0.107,5.931,-13.713,0.551187,0.661896,-1.957830,31.9,83.977,1559177281.734134197
0.0652,0.1879,0.3780,-0.448,5.510,-13.692,0.725008,0.972642,-1.978040,31.9,83.990,1559177281.771904945
0.0555,0.1914,0.3759,-0.657,5.301,-13.660,0.915104,1.348159,-1.904123,31.9,83.987,1559177281.809865475
0.0361,0.1960,0.3783,-0.393,5.543,-13.467,0.923599,1.798829,-1.854772,31.9,83.987,1559177281.847179890
0.0210,0.1973,0.3792,0.189,5.890,-13.443,0.935703,2.046618,-1.767331,31.9,83.977,1559177281.884327888
0.0026,0.2019,0.3775,1.156,6.328,-12.940,1.118969,2.149794,-1.609177,31.9,83.987,1559177281.921241999
-0.0179,0.2111,0.3773,1.887,6.128,-12.415,1.202612,2.331165,-1.522561,31.9,83.974,1559177281.957951307
-0.0341,0.2158,0.3728,1.809,5.812,-12.165,1.301332,2.491239,-1.431408,31.9,83.990,1559177281.994309664
-0.0600,0.2239,0.3634,2.159,5.835,-12.179,1.427162,2.665677,-1.279745,31.9,83.990,1559177282.030050278
-0.0827,0.2354,0.3552,2.778,5.779,-12.075,1.416834,2.925313,-1.067857,31.9,84.000,1559177282.065919399
-0.1011,0.2378,0.3412,3.095,5.776,-11.498,1.514365,3.042909,-0.871925,31.9,83.987,1559177282.101732016
-0.1271,0.2528,0.3250,3.130,5.730,-10.909,1.765227,2.989942,-0.769071,31.9,84.000,1559177282.137706518
0.1912,0.3276,0.3054,-1.752,3.664,-13.260,-1.910694,-2.199195,1.073774,31.9,83.984,1559177282.279884338
0.2096,0.3161,0.3029,-2.107,3.633,-14.536,-1.566912,-2.082029,1.247271,31.9,83.984,1559177282.314868927
0.2247,0.3057,0.2993,-2.113,3.522,-15.215,-1.197601,-1.970066,1.301618,31.9,83.993,1559177282.350343943
0.2409,0.2954,0.2942,-2.051,3.970,-15.910,-0.955249,-1.824374,1.318049,31.9,83.997,1559177282.386148691
0.2560,0.2896,0.2906,-1.955,4.322,-16.572,-0.641018,-1.545773,1.410804,31.9,83.980,1559177282.422637939
0.2711,0.2838,0.2829,-2.137,3.538,-17.187,-0.264268,-1.191622,1.515123,31.9,83.984,1559177282.459447384
0.2819,0.2781,0.2796,-2.324,2.115,-17.488,-0.074436,-0.882617,1.464284,31.9,83.993,1559177282.496315002
0.2927,0.2792,0.2749,-2.773,1.311,-17.863,0.105506,-0.488890,1.372994,31.9,83.984,1559177282.533942223
0.2981,0.2746,0.2705,-3.229,0.695,-18.201,0.212590,-0.039796,1.444537,31.9,83.993,1559177282.572220802
0.3013,0.2700,0.2716,-2.978,0.501,-18.313,0.014427,0.452024,1.449139,31.9,83.993,1559177282.611110449
0.3068,0.2654,0.2781,-2.797,0.812,-17.688,-0.051706,0.790494,1.405265,31.9,83.993,1559177282.650483131
0.3068,0.2631,0.2822,-2.718,0.619,-16.787,0.221205,0.912751,1.354590,31.9,83.980,1559177282.689960480
0.3058,0.2563,0.2863,-2.582,-0.003,-15.882,0.588239,0.813380,1.416063,31.9,83.993,1559177282.729316235
0.3090,0.2540,0.2902,-2.684,-0.684,-14.471,0.608222,1.061305,1.515240,31.9,83.980,1559177282.768370628
0.3015,0.2494,0.3001,-2.124,-0.399,-12.856,0.180296,1.620109,1.587027,31.9,83.993,1559177282.806944370
0.2973,0.2449,0.3098,-2.099,-0.001,-11.879,-0.328159,2.012256,1.603558,31.9,83.993,1559177282.845208883
0.2877,0.2335,0.3266,-1.851,0.304,-11.813,-0.542062,2.093183,1.662346,31.9,83.980,1559177282.883338928
0.2760,0.2222,0.3326,-1.154,0.159,-12.210,-0.550367,2.147551,1.591044,31.9,83.980,1559177282.921145678
0.2663,0.2165,0.3426,-1.151,-0.084,-12.612,-0.365076,2.376313,1.526857,31.9,83.967,1559177282.958626747
0.2513,0.2109,0.3516,-1.297,-0.481,-12.880,-0.119723,2.605992,1.351255,31.9,83.977,1559177282.995702505
0.2288,0.2053,0.3637,-1.341,-0.951,-12.597,0.190969,2.700537,1.044422,31.9,83.980,1559177283.032647848
0.2094,0.2043,0.3716,-1.520,-1.325,-11.778,0.422818,2.600418,0.666806,31.9,83.993,1559177283.069792986
0.1889,0.2067,0.3782,-1.420,-1.592,-10.974,0.837593,2.499900,0.439821,31.9,83.980,1559177283.107126951
0.1663,0.2136,0.3808,-1.070,-1.793,-10.469,0.991943,2.486822,0.253537,31.9,83.990,1559177283.144722700
0.1512,0.2194,0.3858,-0.471,-1.713,-9.536,0.937043,2.646777,0.054129,31.9,83.993,1559177283.182770967
0.1264,0.2275,0.3872,0.058,-1.757,-8.866,0.922812,2.778529,-0.176999,31.9,83.990,1559177283.220733643
0.0994,0.2391,0.3888,0.100,-1.987,-8.128,1.173873,2.747340,-0.416468,31.9,83.980,1559177283.258661509
0.0799,0.2471,0.3844,0.508,-1.987,-7.578,1.523395,2.446728,-0.569825,31.9,83.980,1559177283.296517134
0.0561,0.2575,0.3790,1.285,-1.507,-7.531,1.588063,2.162514,-0.722538,31.9,83.980,1559177283.334442854
0.0334,0.2713,0.3722,2.111,-1.344,-7.143,1.690605,2.078813,-0.846836,31.9,83.980,1559177283.372053623
0.0182,0.2817,0.3622,2.229,-1.347,-6.437,1.780384,1.933936,-0.984524,31.9,83.977,1559177283.409579515
-0.0023,0.2932,0.3525,2.357,-1.451,-5.039,2.047005,1.656936,-1.102823,31.9,83.977,1559177283.446643829
-0.0197,0.3070,0.3427,2.298,-1.787,-4.491,2.049573,1.301608,-1.295454,31.9,83.993,1559177283.483588457
-0.0305,0.3127,0.3338,2.734,-1.597,-4.260,1.623122,1.091093,-1.571833,31.9,83.980,1559177283.520406008
-0.0456,0.3151,0.3265,3.368,-1.184,-3.870,1.245333,0.886328,-1.714981,31.9,83.990,1559177283.557019234
-0.0303,0.2785,0.3499,2.550,4.719,-10.869,1.737349,1.835020,-0.453332,31.8,83.987,1559177283.699671745
-0.0444,0.2980,0.3426,2.885,4.019,-10.836,1.676045,1.859333,-0.174325,31.8,83.987,1559177283.734782219
-0.0510,0.3060,0.3335,3.342,3.573,-10.582,1.470550,2.097023,0.070087,31.8,83.987,1559177283.769890785
-0.0672,0.3198,0.3209,3.444,3.467,-9.856,1.095052,2.264183,0.392608,31.8,83.987,1559177283.805167913
-0.0835,0.3301,0.3055,3.197,3.108,-8.778,1.008666,2.271948,0.760099,31.8,83.987,1559177283.840711832
-0.0890,0.3381,0.2977,3.336,2.797,-7.710,0.461664,2.027315,0.998880,31.8,83.987,1559177283.876220226
-0.0934,0.3473,0.2898,3.673,2.729,-8.131,0.102357,1.888128,1.339870,31.8,83.974,1559177283.911814690
-0.0967,0.3576,0.2792,4.534,2.349,-8.753,-0.060340,2.053450,1.672447,31.8,83.987,1559177283.948061466
-0.0989,0.3667,0.2712,4.620,1.988,-8.689,-0.391122,2.445362,1.904796,31.8,83.987,1559177283.984597921
-0.1033,0.3713,0.2606,4.202,2.269,-7.539,-0.666476,2.602224,2.027706,31.8,83.999,1559177284.021792412
-0.1034,0.3770,0.2511,3.857,2.197,-6.568,-0.517263,2.472677,2.175915,31.8,83.987,1559177284.059618711
-0.1035,0.3895,0.2457,4.379,1.377,-6.334,-0.345953,2.039513,2.235543,31.8,83.987,1559177284.097774506
-0.0981,0.3963,0.2359,4.538,0.382,-6.268,-0.122108,1.673252,2.293573,31.8,83.987,1559177284.136449099
-0.0939,0.4054,0.2290,3.388,0.157,-6.235,-0.481966,1.525854,2.243720,31.8,83.987,1559177284.175087690
-0.0897,0.4157,0.2329,3.440,0.304,-5.215,-0.972662,1.330298,2.161849,31.8,83.983,1559177284.214270115
-0.0756,0.4145,0.2335,4.977,0.916,-5.559,-1.150318,0.899489,2.179091,31.8,83.987,1559177284.253966093
-0.0628,0.4213,0.2328,5.497,0.699,-5.960,-0.783058,0.615967,2.366072,31.8,83.996,1559177284.294059515
-0.0531,0.4235,0.2364,4.866,-0.047,-6.487,-0.469178,0.245726,2.705360,31.8,83.983,1559177284.334388971
-0.0327,0.4314,0.2394,4.788,-1.457,-6.698,-0.196735,0.110882,3.076992,31.8,83.983,1559177284.374956131
-0.0122,0.4370,0.2424,4.561,-1.010,-6.174,-0.715874,-0.176219,2.968458,31.8,83.983,1559177284.415459394
0.0104,0.4426,0.2398,4.928,-1.507,-6.001,-0.632806,-0.524189,2.988771,31.8,83.983,1559177284.456174612
0.0330,0.4413,0.2495,5.397,-2.741,-8.563,-0.956254,-0.494736,2.793525,31.8,83.983,1559177284.497098684
0.0546,0.4378,0.2551,5.097,-2.291,-11.654,-1.642599,0.087715,2.536192,31.8,83.999,1559177284.538159609
0.0686,0.4365,0.2679,3.001,-1.394,-11.285,-1.570362,0.431046,2.636769,31.8,83.983,1559177284.579225302
0.0860,0.4273,0.2737,2.117,-2.166,-9.646,-1.338577,-0.271705,2.684170,31.8,83.970,1559177284.619994164
0.1097,0.4227,0.2805,2.497,-3.050,-9.621,-0.861203,-0.761359,2.575295,31.8,83.987,1559177284.660681963
0.1259,0.4191,0.2851,2.168,-2.797,-10.546,-0.146500,-1.026705,2.700108,31.8,83.983,1559177284.701459408
0.1496,0.4145,0.2837,1.783,-2.983,-11.781,-0.778028,-0.824397,2.509529,31.8,83.983,1559177284.742259741
0.1702,0.4064,0.2907,0.419,-2.964,-10.579,-0.410249,-0.411618,2.650520,31.8,83.983,1559177284.782822847
0.1863,0.4029,0.2898,0.790,-2.890,-10.019,0.023876,-0.219995,2.822871,31.8,83.983,1559177284.823428392
0.2047,0.3982,0.2915,1.087,-2.704,-10.355,-0.370635,0.048014,2.534960,31.8,83.970,1559177284.863526106
0.2166,0.3890,0.2921,-0.192,-1.940,-8.552,-0.454604,0.291859,2.185045,31.8,83.970,1559177284.903386593
0.2252,0.3844,0.2957,-0.555,-2.367,-6.951,-0.153122,0.532323,1.753886,31.8,83.983,1559177284.943152905
0.2285,0.3776,0.2996,-0.908,-2.031,-7.299,-0.378301,0.581528,1.375906,31.8,83.980,1559177284.982661486
0.2340,0.3707,0.3006,-0.306,-1.957,-8.137,-0.483992,1.009751,1.278853,31.8,83.983,1559177285.022110224
0.2297,0.3650,0.3103,-0.207,-1.116,-7.609,-0.796779,1.390358,1.173771,31.8,83.983,1559177285.061405182
0.2233,0.3559,0.3174,-0.458,-1.166,-5.671,-1.057983,1.646778,1.008055,31.8,83.983,1559177285.100408792
0.2180,0.3468,0.3244,0.579,-1.132,-3.894,-1.110868,1.748771,0.800620,31.8,83.983,1559177285.139566183
0.2138,0.3366,0.3341,0.763,-0.825,-4.387,-1.099902,1.655568,0.604420,31.8,83.970,1559177285.178587914
0.2053,0.3275,0.3414,0.051,-0.360,-3.971,-1.585078,1.614942,0.426654,31.8,83.983,1559177285.217394829
0.3272,0.0794,0.2307,1.774,1.549,-11.883,-0.128050,0.000683,-0.943670,31.8,83.989,1559177285.373502970
0.3358,0.0805,0.2248,2.069,1.766,-12.037,0.265311,-0.476560,-1.206567,31.8,84.006,1559177285.412515163
0.3433,0.0873,0.2217,2.549,3.014,-11.457,1.124319,-1.154367,-0.933975,31.8,83.993,1559177285.451785326
0.3508,0.0907,0.2200,2.515,2.652,-11.229,1.605428,-1.259934,-0.734509,31.8,83.993,1559177285.490643263
0.3583,0.0998,0.2155,1.390,2.107,-11.052,1.429443,-1.044610,-0.634072,31.8,83.993,1559177285.529489040
0.3658,0.1009,0.2138,-0.197,2.434,-11.127,1.331951,-0.618809,-0.831979,31.8,84.006,1559177285.568030119
0.3701,0.1088,0.2177,-0.578,2.440,-10.068,1.798262,-0.658675,-0.530067,31.8,83.993,1559177285.606475353
0.3776,0.1134,0.2187,-0.698,2.347,-11.726,1.362743,-0.511488,-0.393462,31.8,83.993,1559177285.644975662
0.3797,0.1168,0.2213,-0.264,2.639,-10.899,1.028675,-0.360739,-0.310199,31.8,83.989,1559177285.683026552
0.3851,0.1167,0.2237,-0.083,2.604,-9.895,1.268700,-0.480240,-0.208794,31.8,83.976,1559177285.720940590
0.3873,0.1190,0.2263,0.004,2.476,-10.144,1.188661,-0.156762,-0.216282,31.8,83.993,1559177285.758905411
0.3916,0.1247,0.2357,0.208,1.990,-9.171,1.440525,0.297318,-0.147021,31.8,84.006,1559177285.796712875
0.3872,0.1327,0.2441,0.832,0.721,-8.180,1.787035,0.362579,-0.229312,31.8,83.989,1559177285.834629774
0.3904,0.1372,0.2494,-0.169,0.038,-4.892,1.278890,0.081179,-0.319252,31.8,84.002,1559177285.872509003
0.3904,0.1395,0.2563,0.729,1.476,-0.337,0.510771,0.008845,-0.394335,31.8,84.002,1559177285.910417795
0.3969,0.1440,0.2600,5.816,-4.616,2.252,1.039916,0.197972,-1.337022,31.8,83.993,1559177285.948139191
0.3948,0.1418,0.2669,2.052,-3.546,1.284,-2.160048,0.207850,-2.545763,31.8,83.989,1559177285.985343456
0.3991,0.1429,0.2735,-2.303,0.025,2.645,-1.640983,-0.321477,-2.920854,31.8,83.989,1559177286.022504807
0.4077,0.1497,0.2745,-4.003,0.600,1.616,1.122848,-0.850157,-2.118038,31.8,83.989,1559177286.060158014
0.4173,0.1588,0.2767,-2.415,0.144,1.366,0.852222,-0.651046,-1.852976,31.8,84.002,1559177286.097547770
0.4270,0.1644,0.2803,-0.865,-0.267,0.997,0.358687,0.498358,-1.503214,31.8,83.976,1559177286.134656191
0.4293,0.1519,0.3019,-2.213,-0.306,0.850,-3.917665,2.373162,-2.070033,31.8,84.002,1559177286.171574831
0.4220,0.1177,0.3293,-7.033,0.976,2.143,-7.205674,3.631058,-2.508897,31.8,84.002,1559177286.208464622
0.4128,0.0595,0.3634,-13.225,1.985,2.374,-7.591096,4.046627,-2.573139,31.8,83.989,1559177286.245379448
0.4176,-0.0009,0.3818,-16.175,1.502,2.680,-7.683852,3.209328,-3.379512,31.8,83.989,1559177286.282290220
0.4479,-0.0319,0.3758,-15.614,1.952,3.964,-8.645853,1.714223,-5.127657,31.8,84.002,1559177286.319339037
0.4986,0.1264,0.3783,-6.593,89.212,-142.757,13.858003,-1.052638,4.841100,31.8,83.989,1559177286.356893539
0.4386,-0.0957,0.3664,0.197,-1.816,4.455,-19.241585,3.145238,5.627931,31.8,84.002,1559177286.394392014
0.3851,-0.1616,0.3552,-2.655,-0.430,2.260,1.649493,3.911622,4.923996,31.8,83.989,1559177286.431639910
0.3217,-0.1681,0.3736,-2.187,-2.582,1.234,-0.784328,2.211756,3.248670,31.8,83.999,1559177286.468909740
0.2938,-0.1999,0.3545,0.209,-1.943,3.047,-3.280432,-0.671397,2.437689,31.8,83.989,1559177286.506402254
0.3025,-0.2079,0.3458,6.211,-2.444,1.755,1.679282,-2.912230,0.663497,31.8,84.002,1559177286.544265747
0.3455,-0.2013,0.3380,2.897,-0.991,-2.924,0.803272,-4.703395,-1.815897,31.8,83.989,1559177286.582275629
0.4121,-0.1788,0.3291,2.037,2.503,-7.586,3.010195,-5.121116,-3.178037,31.8,84.002,1559177286.620160818
0.4700,-0.1369,0.3344,1.212,12.206,-16.671,5.633287,-4.105145,-2.486015,31.8,84.002,1559177286.658050537
0.5042,0.3898,0.3090,-0.638,-0.714,-10.180,-0.610053,0.378930,0.101867,31.8,84.008,1559177286.807979584
0.5032,0.3819,0.3104,-1.229,-0.888,-9.723,-1.047710,0.095585,0.038362,31.8,83.996,1559177286.845615864
0.4990,0.3750,0.3187,0.050,-0.678,-9.311,-1.678907,0.205922,0.044337,31.8,83.983,1559177286.883080244
0.5034,0.3636,0.3252,-0.854,0.320,-9.829,-1.032723,-0.016495,0.287216,31.8,83.996,1559177286.920452595
0.5013,0.3579,0.3280,-1.196,0.258,-10.017,-1.033164,0.325437,0.330298,31.8,83.983,1559177286.958327770
0.5003,0.3465,0.3375,-0.206,0.585,-9.317,-0.530986,0.394965,0.527470,31.8,83.996,1559177286.996363878
0.5025,0.3419,0.3415,-1.154,0.243,-10.127,-0.356258,0.104178,0.352407,31.8,83.996,1559177287.034467936
0.4993,0.3317,0.3456,-0.209,0.080,-9.805,-1.058891,0.201256,0.368109,31.8,83.996,1559177287.072718859
0.5026,0.3191,0.3495,-0.324,0.209,-9.458,-1.309816,0.095310,0.056232,31.8,83.983,1559177287.111107349
0.5038,0.3134,0.3562,-0.433,1.248,-9.065,-0.655157,-0.108458,-0.108401,31.8,83.983,1559177287.149442673
0.5016,0.3123,0.3522,-1.082,1.161,-9.802,0.216132,-0.055601,-0.092927,31.7,83.996,1559177287.187854767
0.4951,0.3192,0.3580,-0.077,1.103,-8.163,0.951853,-0.043909,-0.723255,31.7,83.996,1559177287.226352692
0.4983,0.3294,0.3484,-0.109,1.051,-10.049,1.697391,-0.072395,-0.019629,31.7,83.996,1559177287.264555931
0.4993,0.3317,0.3470,0.576,-0.434,-9.108,-0.330045,0.245180,-0.134099,31.7,83.992,1559177287.302709579
0.4950,0.3374,0.3459,-0.521,0.852,-9.952,0.104580,-0.124418,-0.188800,31.7,83.996,1559177287.340981722
0.4928,0.3408,0.3488,-0.574,0.093,-9.377,0.100855,0.012127,-0.595661,31.7,83.996,1559177287.379177094
0.4939,0.3431,0.3419,-0.438,0.714,-9.744,0.407683,-0.023645,-0.439972,31.7,83.996,1559177287.417142391
0.4863,0.3500,0.3451,-0.857,0.106,-9.773,0.062204,0.110056,-0.453127,31.7,83.992,1559177287.454913378
0.4863,0.3523,0.3438,-0.534,-0.294,-10.102,-0.541155,0.524689,-0.557949,31.7,83.996,1559177287.492600679
0.4745,0.3501,0.3540,0.213,-0.125,-9.198,-0.534282,0.696229,-1.032310,31.7,83.992,1559177287.530261040
0.4647,0.3592,0.3491,0.447,1.497,-8.764,1.183849,-0.101445,-0.942412,31.7,83.996,1559177287.567902088
0.4646,0.3729,0.3424,-1.195,0.760,-10.235,1.368833,0.002894,-0.751321,31.7,83.996,1559177287.605472326
0.4579,0.3946,0.3307,-0.507,-0.463,-10.248,1.642955,-0.323116,-0.870554,31.7,83.979,1559177287.642957926
0.4568,0.4049,0.3213,-0.063,-0.041,-9.787,1.101019,-0.245896,-0.519642,31.7,83.992,1559177287.680113316
0.4535,0.4152,0.3174,0.823,-1.235,-8.972,1.271637,0.077029,-0.643995,31.7,83.992,1559177287.717001677
0.4458,0.4312,0.3084,0.125,-1.225,-9.522,1.152645,-0.586620,-1.208268,31.7,83.992,1559177287.753708601
0.4435,0.4438,0.2991,-0.397,-0.298,-9.700,0.693722,-0.694737,-1.183940,31.7,83.992,1559177287.790359497
0.4402,0.4506,0.2912,-0.185,-0.219,-9.634,-0.106104,-0.842155,-0.735871,31.7,83.992,1559177287.827028036
0.4370,0.4449,0.2927,-1.920,-1.910,-9.252,-2.822649,-0.765068,-0.908171,31.7,83.996,1559177287.863430977
0.4371,0.4347,0.3076,-0.979,0.526,-10.442,-2.015820,-0.618407,-0.781730,31.7,83.979,1559177287.900093079
0.4426,0.4324,0.3114,-0.378,-0.125,-9.313,-0.273744,-0.034971,-0.076957,31.7,83.992,1559177287.936880589
0.4393,0.4335,0.3075,-0.606,-0.007,-9.527,0.209981,0.160227,-0.278918,31.7,84.008,1559177287.973978996
0.4317,0.4393,0.3079,-0.406,-0.152,-9.647,0.830179,0.267168,-0.803467,31.7,84.005,1559177288.011109352
0.4263,0.4518,0.3029,-0.705,0.257,-8.838,2.264695,0.061094,-0.621109,31.7,84.002,1559177288.048200607
0.4228,0.4735,0.2828,-1.244,-0.280,-10.294,3.003671,0.105363,-0.163344,31.7,83.992,1559177288.085559130
0.4871,0.3797,0.3194,-0.795,0.007,-9.658,0.014623,0.000758,-0.000414,31.7,83.986,1559177288.235288382
0.4849,0.3763,0.3154,-0.803,-0.027,-9.696,-0.001699,0.000396,0.001838,31.7,83.998,1559177288.272652149
0.4860,0.3808,0.3195,-0.792,-0.037,-9.664,-0.006492,-0.000579,0.003798,31.7,83.998,1559177288.310012579
0.4839,0.3785,0.3210,-0.785,0.073,-9.618,0.020201,-0.011697,0.001832,31.7,83.986,1559177288.347527742
0.4839,0.3797,0.3210,-0.807,0.024,-9.650,0.008326,-0.003053,0.004116,31.7,83.976,1559177288.385276556
0.4871,0.3774,0.3180,-0.774,0.002,-9.697,-0.024114,0.001452,0.007444,31.7,83.986,1559177288.423011541
0.4871,0.3797,0.3181,-0.703,-0.135,-9.678,-0.055961,0.001042,0.011370,31.7,84.002,1559177288.461273670
0.4871,0.3762,0.3221,-0.755,0.045,-9.718,-0.036381,0.007194,0.021424,31.7,84.002,1559177288.499321461
0.4849,0.3797,0.3195,-0.755,-0.018,-9.623,0.002287,-0.003698,0.000387,31.7,83.986,1559177288.537403345
0.4871,0.3740,0.3180,-0.758,0.027,-9.638,0.016314,0.001122,-0.000219,31.7,83.998,1559177288.575563669
0.4849,0.3785,0.3182,-0.841,-0.002,-9.577,-0.002129,0.000425,0.001139,31.7,83.998,1559177288.613593340
0.4849,0.3774,0.3195,-0.835,0.009,-9.751,-0.012293,0.000316,0.002910,31.7,83.986,1559177288.651824713
0.4849,0.3774,0.3195,-0.770,0.051,-9.722,-0.010405,0.003417,0.002677,31.7,84.011,1559177288.690159798
0.4860,0.3774,0.3181,-0.728,0.018,-9.628,0.001825,-0.002641,0.002577,31.7,83.998,1559177288.728543282
0.4871,0.3762,0.3208,-0.773,-0.004,-9.716,0.003266,-0.003439,0.001428,31.7,83.986,1559177288.767049551
0.4849,0.3785,0.3195,-0.813,-0.033,-9.711,0.020283,-0.001485,0.000344,31.7,83.998,1559177288.805680752
0.4893,0.3785,0.3207,-0.801,-0.050,-9.708,-0.001022,0.001325,0.004845,31.7,83.998,1559177288.844458103
0.4860,0.3774,0.3208,-0.796,0.028,-9.671,-0.037592,0.003641,0.015598,31.7,83.998,1559177288.883067846
0.4850,0.3774,0.3209,-0.712,0.039,-9.763,0.005335,0.016014,0.042300,31.7,83.986,1559177288.921627998
0.4871,0.3774,0.3208,-0.740,0.023,-9.704,-0.060075,0.006039,0.034107,31.7,83.986,1559177288.960173845
0.4882,0.3774,0.3193,-0.763,0.001,-9.605,-0.005690,-0.002907,0.008718,31.7,83.986,1559177288.998656750
0.4860,0.3774,0.3181,-0.820,0.049,-9.645,0.015049,0.001698,0.000889,31.7,83.998,1559177289.037217140
0.4850,0.3751,0.3222,-0.835,0.051,-9.686,0.005082,0.001238,0.002081,31.7,83.998,1559177289.075760365
0.4849,0.3785,0.3209,-0.763,0.037,-9.699,-0.010176,-0.000183,0.003099,31.7,83.998,1559177289.114226103
0.4882,0.3751,0.3180,-0.787,0.032,-9.632,-0.005897,0.000026,0.003539,31.7,83.998,1559177289.152885914
0.4850,0.3740,0.3209,-0.791,0.048,-9.672,0.004058,0.001133,0.001521,31.7,83.998,1559177289.191533327
0.4839,0.3763,0.3223,-0.777,0.041,-9.659,0.002690,-0.000226,0.001514,31.7,83.986,1559177289.230136395
0.4861,0.3740,0.3208,-0.790,0.054,-9.668,-0.005537,-0.000730,0.002536,31.7,83.986,1559177289.269032955
0.4860,0.3762,0.3195,-0.787,0.059,-9.691,-0.007662,0.000423,0.000765,31.7,83.998,1559177289.308174372
0.4849,0.3774,0.3195,-0.792,0.057,-9.690,0.026729,-0.011155,0.006679,31.7,83.995,1559177289.347137690
0.4871,0.3751,0.3221,-0.751,0.040,-9.714,0.012620,-0.000701,0.006279,31.7,83.998,1559177289.386259794
0.4860,0.3785,0.3208,-0.771,0.011,-9.661,-0.031254,0.002385,0.008324,31.7,83.998,1559177289.425377846
0.4871,0.3751,0.3207,-0.755,0.099,-9.686,-0.043425,0.005221,0.033607,31.7,83.998,1559177289.464459658
0.4871,0.3728,0.3235,-0.750,0.018,-9.709,-0.010410,0.005044,0.007197,31.7,83.998,1559177289.503414869
0.4882,0.3751,0.3180,-0.792,0.057,-9.691,0.005161,0.004011,0.004049,31.7,83.995,1559177289.542345762
0.4871,0.3740,0.3194,-0.785,0.077,-9.660,0.000857,-0.001266,0.002924,31.7,83.992,1559177289.697127819
0.4871,0.3740,0.3194,-0.765,0.071,-9.679,-0.000381,-0.000420,0.002477,31.7,83.992,1559177289.735869884
0.4861,0.3728,0.3208,-0.758,0.073,-9.701,-0.002163,-0.000503,0.001504,31.7,83.992,1559177289.774673462
0.4850,0.3751,0.3195,-0.763,0.072,-9.676,0.000162,-0.000894,0.001891,31.7,83.992,1559177289.813129187
0.4861,0.3728,0.3222,-0.777,0.068,-9.672,-0.000358,-0.000605,0.001259,31.7,83.992,1559177289.851858854
0.4893,0.3717,0.3233,-0.779,0.067,-9.668,0.001648,-0.001649,0.001696,31.7,83.979,1559177289.890693188
0.4871,0.3740,0.3207,-0.792,0.082,-9.640,-0.000699,-0.002153,0.001987,31.7,83.992,1559177289.929474354
0.4861,0.3740,0.3208,-0.754,0.070,-9.694,-0.002443,-0.000026,0.001944,31.7,83.992,1559177289.968675852
0.4850,0.3728,0.3195,-0.769,0.075,-9.674,-0.000866,-0.001100,0.001119,31.7,83.992,1559177290.007715225
0.4850,0.3740,0.3209,-0.764,0.067,-9.691,0.000415,-0.000523,0.001014,31.7,83.979,1559177290.046622276
0.4860,0.3751,0.3222,-0.769,0.058,-9.680,0.001410,0.000256,0.001746,31.7,84.005,1559177290.085637808
0.4871,0.3751,0.3207,-0.772,0.099,-9.682,-0.001808,-0.001215,0.001945,31.7,83.992,1559177290.124607801
0.4860,0.3751,0.3194,-0.778,0.070,-9.709,0.002246,-0.002702,0.002226,31.7,83.992,1559177290.163703680
0.4871,0.3751,0.3221,-0.796,0.033,-9.724,0.007697,0.006261,0.001102,31.7,83.992,1559177290.202960253
0.4871,0.3751,0.3207,-0.776,0.027,-9.675,-0.011258,0.002629,0.000823,31.7,83.992,1559177290.242245436
0.4860,0.3762,0.3249,-0.784,0.092,-9.683,-0.054842,0.006756,0.012010,31.7,83.979,1559177290.281443119
0.4850,0.3751,0.3209,-0.759,0.130,-9.667,-0.043844,0.006370,0.032474,31.7,83.992,1559177290.320494890
0.4850,0.3740,0.3195,-0.781,0.142,-9.646,-0.000631,0.004027,0.006168,31.7,84.005,1559177290.359586716
0.4850,0.3762,0.3250,-0.718,0.094,-9.632,-0.002482,0.000646,-0.003171,31.7,83.992,1559177290.398520231
0.4871,0.3740,0.3221,-0.784,0.065,-9.712,0.004396,0.001147,-0.001976,31.7,83.988,1559177290.437747240
0.4882,0.3717,0.3193,-0.787,0.087,-9.710,-0.011096,-0.005254,0.004019,31.7,83.992,1559177290.476660490
0.4861,0.3717,0.3208,-0.740,0.109,-9.653,-0.010648,0.001087,0.002233,31.7,83.988,1559177290.515289307
0.4850,0.3740,0.3236,-0.776,0.105,-9.689,0.005074,-0.000397,0.000627,31.7,83.992,1559177290.553946257
0.4860,0.3751,0.3222,-0.755,0.098,-9.682,0.007076,-0.002079,0.000403,31.7,84.001,1559177290.592418909
0.4871,0.3740,0.3221,-0.791,0.078,-9.681,-0.002658,0.000187,0.002959,31.7,83.988,1559177290.630882502
0.4860,0.3740,0.3181,-0.799,0.104,-9.694,-0.003381,-0.001246,0.002768,31.7,83.988,1559177290.669581652
0.4871,0.3774,0.3208,-0.767,0.117,-9.663,0.000431,-0.000648,0.001246,31.7,83.976,1559177290.708316088
0.4861,0.3728,0.3208,-0.773,0.093,-9.658,0.002179,-0.000172,0.001892,31.7,83.988,1559177290.746994019
0.4871,0.3751,0.3207,-0.792,0.076,-9.686,-0.000781,-0.000631,0.001160,31.7,83.988,1559177290.785685778
0.4850,0.3740,0.3222,-0.753,0.078,-9.657,-0.001062,0.000883,0.002093,31.7,84.005,1559177290.824393988
0.4850,0.3751,0.3209,-0.764,0.098,-9.678,0.000618,-0.000985,0.000734,31.7,83.988,1559177290.863044262
0.4893,0.3728,0.3220,-0.775,0.115,-9.663,0.001755,-0.000361,0.001475,31.7,83.988,1559177290.901768923
0.4861,0.3740,0.3208,-0.773,0.102,-9.657,0.000098,-0.001131,0.001621,31.7,83.988,1559177290.940758944
0.4860,0.3751,0.3222,-0.786,0.096,-9.642,0.000631,0.000453,0.002305,31.7,84.001,1559177290.979436398
0.4839,0.3751,0.3223,-0.790,0.101,-9.689,-0.000320,0.000120,0.000681,31.7,83.988,1559177291.018017769
0.4882,0.3740,0.3220,-0.771,0.073,-9.681,0.001025,-0.000451,0.001027,31.7,84.001,1559177291.056704521
0.4861,0.3740,0.3208,-0.789,0.098,-9.661,-0.000221,-0.001172,0.003155,31.7,84.001,1559177291.095468998
0.4839,0.3728,0.3195,-0.759,0.103,-9.688,0.001299,-0.000634,0.002667,31.7,83.988,1559177291.134236097
0.4850,0.3740,0.3222,-0.760,0.082,-9.713,0.000864,-0.000343,0.003542,31.7,83.976,1559177291.173127413
0.4861,0.3717,0.3221,-0.777,0.104,-9.678,-0.003462,-0.001396,0.002182,31.6,83.998,1559177291.329585791
0.4882,0.3751,0.3207,-0.758,0.085,-9.674,0.001999,-0.001026,0.002139,31.6,83.985,1559177291.369114161
0.4861,0.3728,0.3222,-0.770,0.104,-9.690,0.003604,-0.001840,0.002625,31.6,83.985,1559177291.408626556
0.4871,0.3740,0.3235,-0.747,0.101,-9.678,-0.000880,-0.001533,0.002038,31.6,83.985,1559177291.448534012
0.4871,0.3740,0.3221,-0.761,0.077,-9.646,-0.001223,-0.001479,0.002736,31.6,83.985,1559177291.488493681
0.4839,0.3751,0.3209,-0.790,0.096,-9.643,0.000912,0.000551,0.000853,31.6,83.985,1559177291.528248310
0.4850,0.3740,0.3222,-0.765,0.090,-9.717,0.001850,-0.000922,0.002025,31.6,83.998,1559177291.567814827
0.4882,0.3717,0.3234,-0.740,0.087,-9.678,0.000480,0.000141,0.001781,31.6,83.998,1559177291.607560158
0.4893,0.3717,0.3206,-0.761,0.090,-9.695,-0.001141,-0.001682,0.002307,31.6,83.995,1559177291.647305489
0.4861,0.3728,0.3194,-0.761,0.111,-9.660,0.001821,-0.001775,0.001919,31.6,83.995,1559177291.687184334
0.4882,0.3740,0.3207,-0.777,0.089,-9.697,0.004190,-0.000938,0.001893,31.6,83.985,1559177291.727086782
0.4882,0.3728,0.3234,-0.779,0.105,-9.695,0.000304,-0.001483,0.000821,31.6,83.998,1559177291.766986370
0.4872,0.3705,0.3234,-0.770,0.094,-9.647,-0.001126,-0.002021,0.001634,31.6,83.985,1559177291.806969166
0.4882,0.3728,0.3261,-0.766,0.096,-9.698,0.001238,-0.001061,0.001580,31.6,83.998,1559177291.846640110
0.4850,0.3751,0.3250,-0.766,0.116,-9.704,0.001764,-0.001657,0.001654,31.6,83.998,1559177291.886296749
0.4871,0.3728,0.3180,-0.776,0.071,-9.674,0.000544,-0.001172,0.001200,31.6,83.998,1559177291.926008224
0.4871,0.3751,0.3207,-0.760,0.091,-9.704,-0.000247,-0.002061,0.001252,31.6,83.998,1559177291.965505362
0.4861,0.3717,0.3235,-0.771,0.108,-9.661,-0.000192,-0.000733,0.002442,31.6,83.995,1559177292.004895926
0.4893,0.3728,0.3220,-0.742,0.099,-9.658,0.001604,-0.002231,0.002117,31.6,83.998,1559177292.044052124
0.4850,0.3728,0.3208,-0.765,0.110,-9.681,0.001266,-0.000028,0.001253,31.6,83.985,1559177292.083053589
0.4850,0.3705,0.3222,-0.750,0.104,-9.662,-0.000024,-0.001087,0.001173,31.6,83.982,1559177292.122147083
0.4839,0.3763,0.3196,-0.765,0.109,-9.640,0.000467,-0.001008,0.001958,31.6,83.998,1559177292.161065817
0.4871,0.3751,0.3221,-0.752,0.116,-9.674,0.000556,-0.001512,0.002250,31.6,83.985,1559177292.200136423
0.4871,0.3728,0.3221,-0.750,0.104,-9.682,0.002328,-0.002086,0.002345,31.6,83.995,1559177292.239512205
0.4893,0.3751,0.3206,-0.773,0.077,-9.707,0.001433,-0.000407,0.002531,31.6,83.985,1559177292.278936863
0.4860,0.3762,0.3222,-0.762,0.086,-9.654,0.000399,-0.002352,0.000822,31.6,83.995,1559177292.318136930
0.4882,0.3751,0.3207,-0.757,0.081,-9.670,0.000119,-0.000058,0.001466,31.6,84.008,1559177292.357459545
0.4882,0.3740,0.3207,-0.756,0.095,-9.687,0.000813,-0.001790,0.001829,31.6,83.995,1559177292.396811962
0.4882,0.3728,0.3248,-0.755,0.112,-9.647,0.000929,-0.000463,0.003274,31.6,83.995,1559177292.436316729
0.4871,0.3717,0.3221,-0.800,0.097,-9.673,-0.000354,-0.000754,0.001759,31.6,83.995,1559177292.475895882
0.4882,0.3740,0.3234,-0.752,0.098,-9.691,0.001427,-0.001632,0.002424,31.6,83.995,1559177292.515493870
0.4882,0.3705,0.3193,-0.760,0.110,-9.684,-0.000712,-0.001102,0.002689,31.6,83.978,1559177292.555223703
0.4871,0.3728,0.3221,-0.760,0.106,-9.661,0.000299,-0.002506,0.001915,31.6,83.995,1559177292.594924927
0.4882,0.3728,0.3207,-0.775,0.101,-9.691,0.001162,-0.002582,0.002212,31.6,83.982,1559177292.634447098
0.4850,0.3728,0.3236,-0.786,0.108,-9.703,0.000476,-0.000011,0.001573,31.6,83.991,1559177292.674152374
0.4871,0.3728,0.3207,-0.753,0.104,-9.699,0.000285,-0.000940,0.002595,31.6,83.978,1559177292.831392288
0.4850,0.3717,0.3236,-0.780,0.115,-9.699,-0.000786,-0.002307,0.002885,31.6,84.001,1559177292.870703220
0.4871,0.3740,0.3221,-0.760,0.133,-9.686,-0.000404,-0.000378,0.001973,31.6,83.978,1559177292.909933090
0.4882,0.3717,0.3234,-0.762,0.115,-9.666,0.001689,0.000502,0.000447,31.6,84.001,1559177292.949184656
0.4882,0.3751,0.3193,-0.764,0.108,-9.687,0.001405,-0.000029,0.000349,31.6,83.991,1559177292.988339424
0.4850,0.3740,0.3195,-0.747,0.090,-9.692,0.000786,-0.001245,0.001945,31.6,84.004,1559177293.027419329
0.4860,0.3774,0.3195,-0.787,0.114,-9.656,0.000505,-0.000928,0.001785,31.6,84.004,1559177293.066642761
0.4861,0.3728,0.3208,-0.764,0.107,-9.688,0.000421,-0.000415,0.002062,31.6,83.988,1559177293.106019497
0.4839,0.3728,0.3223,-0.764,0.126,-9.675,0.001882,-0.001044,0.002800,31.6,83.988,1559177293.145314693
0.4882,0.3740,0.3234,-0.779,0.095,-9.688,0.000623,-0.001795,0.001838,31.6,83.988,1559177293.184491634
0.4871,0.3728,0.3221,-0.786,0.099,-9.701,0.000804,-0.001792,0.001361,31.6,83.991,1559177293.223801374
0.4850,0.3694,0.3222,-0.766,0.108,-9.691,-0.000624,-0.001427,0.001320,31.6,83.988,1559177293.263044596
0.4861,0.3717,0.3221,-0.776,0.092,-9.682,0.001378,-0.001694,0.000735,31.6,83.988,1559177293.302551508
0.4861,0.3694,0.3235,-0.761,0.118,-9.672,0.000835,-0.001735,0.002706,31.6,84.001,1559177293.342018843
0.4850,0.3728,0.3249,-0.770,0.098,-9.706,0.000369,-0.001514,0.002370,31.6,83.988,1559177293.381527185
0.4882,0.3717,0.3207,-0.783,0.098,-9.682,-0.000296,-0.001003,0.002669,31.6,83.988,1559177293.421136379
0.4861,0.3717,0.3221,-0.756,0.098,-9.674,0.001925,-0.001021,0.001622,31.6,83.988,1559177293.460602522
0.4861,0.3717,0.3249,-0.782,0.095,-9.688,0.001543,-0.000265,0.002464,31.6,83.988,1559177293.499983072
0.4871,0.3728,0.3207,-0.771,0.104,-9.681,0.000377,-0.001385,0.001519,31.6,83.988,1559177293.539309263
0.4850,0.3705,0.3222,-0.754,0.098,-9.683,0.000072,-0.001772,0.002370,31.6,84.001,1559177293.578832388
0.4850,0.3740,0.3209,-0.775,0.117,-9.671,0.000373,-0.001783,0.001812,31.6,83.988,1559177293.618015528
0.4914,0.3739,0.3205,-0.781,0.087,-9.704,0.001608,-0.001714,0.001706,31.6,84.001,1559177293.657322168
0.4850,0.3751,0.3222,-0.758,0.108,-9.698,0.000271,-0.002159,0.001680,31.6,83.991,1559177293.696527481
0.4904,0.3728,0.3233,-0.769,0.115,-9.699,0.001035,-0.001337,0.001506,31.6,84.001,1559177293.735970020
0.4871,0.3740,0.3221,-0.781,0.112,-9.660,0.000494,-0.000777,0.001827,31.6,84.001,1559177293.775415182
0.4850,0.3751,0.3209,-0.773,0.091,-9.709,0.000886,-0.002373,0.002531,31.6,84.001,1559177293.814723253
0.4861,0.3705,0.3235,-0.771,0.116,-9.705,-0.000085,-0.000296,0.001935,31.6,83.988,1559177293.854171515
0.4861,0.3740,0.3235,-0.767,0.092,-9.673,0.000285,0.000372,0.002135,31.6,84.001,1559177293.893591166
0.4871,0.3751,0.3235,-0.762,0.113,-9.651,0.001901,-0.000941,0.000677,31.6,83.988,1559177293.932948589
0.4871,0.3717,0.3207,-0.764,0.103,-9.651,0.000818,-0.001749,0.001913,31.6,83.988,1559177293.972418070
0.4893,0.3728,0.3220,-0.774,0.110,-9.644,-0.000712,-0.000922,0.000972,31.6,84.001,1559177294.011716366
0.4861,0.3717,0.3235,-0.750,0.102,-9.692,0.000643,-0.000191,0.002452,31.6,83.988,1559177294.050646782
0.4871,0.3740,0.3194,-0.770,0.106,-9.694,0.003039,-0.001445,0.000661,31.6,83.988,1559177294.089447021
0.4850,0.3694,0.3222,-0.788,0.077,-9.692,0.027719,-0.013524,0.010017,31.6,83.985,1559177294.128300667
0.4882,0.3728,0.3248,-0.762,0.060,-9.723,-0.000307,0.000792,0.010284,31.6,84.001,1559177294.166878700
0.4871,0.3728,0.3235,-0.774,0.090,-9.653,0.000890,-0.000961,0.002371,31.6,83.997,1559177294.321752071
0.4861,0.3728,0.3235,-0.787,0.098,-9.711,0.000176,-0.001230,0.001027,31.6,83.994,1559177294.360804796
0.4871,0.3751,0.3194,-0.768,0.116,-9.698,0.001662,-0.002035,0.001161,31.6,83.997,1559177294.399986506
0.4882,0.3717,0.3234,-0.772,0.108,-9.701,-0.000351,0.000207,0.002317,31.6,83.997,1559177294.439735889
0.4850,0.3717,0.3249,-0.767,0.101,-9.667,0.000754,-0.001393,0.001485,31.6,83.985,1559177294.479259491
0.4861,0.3694,0.3208,-0.755,0.084,-9.672,0.001517,-0.001253,0.002216,31.6,83.997,1559177294.518589020
0.4871,0.3728,0.3235,-0.755,0.110,-9.699,0.001537,-0.001017,0.002452,31.6,83.981,1559177294.557967663
0.4871,0.3740,0.3221,-0.754,0.116,-9.714,0.001335,0.000168,0.002200,31.6,83.997,1559177294.597250223
0.4861,0.3728,0.3208,-0.771,0.111,-9.694,0.000522,-0.001234,0.001667,31.6,83.994,1559177294.636501312
0.4861,0.3728,0.3222,-0.760,0.118,-9.665,0.000461,-0.000529,0.001878,31.6,83.994,1559177294.675656557
0.4861,0.3751,0.3235,-0.752,0.108,-9.703,0.001528,-0.001134,0.001468,31.6,83.994,1559177294.714599609
0.4850,0.3717,0.3208,-0.778,0.118,-9.670,0.000418,-0.000087,0.002610,31.6,83.997,1559177294.753416777
0.4839,0.3717,0.3209,-0.773,0.121,-9.700,0.000547,-0.001276,0.001466,31.6,83.994,1559177294.791902065
0.4882,0.3728,0.3220,-0.766,0.107,-9.664,0.000815,-0.000529,0.001409,31.6,84.007,1559177294.830267668
0.4871,0.3740,0.3194,-0.748,0.121,-9.678,0.002208,-0.001224,0.001813,31.6,83.994,1559177294.868788958
0.4893,0.3728,0.3193,-0.769,0.108,-9.681,-0.000274,-0.000484,0.002596,31.6,83.994,1559177294.907527685
0.4871,0.3740,0.3221,-0.764,0.106,-9.667,0.001685,-0.002241,0.002304,31.6,83.981,1559177294.946097374
0.4861,0.3705,0.3235,-0.752,0.117,-9.686,0.000722,-0.001258,0.002123,31.6,83.997,1559177294.984674692
0.4882,0.3740,0.3084,-0.769,0.120,-9.688,0.001310,-0.001575,0.003128,31.6,83.997,1559177295.023306370
0.4861,0.3740,0.3208,-0.744,0.100,-9.685,0.000826,-0.001623,0.003070,31.6,83.994,1559177295.062046766
0.4872,0.3694,0.3221,-0.764,0.093,-9.653,0.000382,-0.001247,0.002596,31.6,83.968,1559177295.100871086
0.4882,0.3751,0.3221,-0.756,0.113,-9.689,0.002271,-0.002212,0.001187,31.6,83.981,1559177295.140027046
0.4839,0.3728,0.3195,-0.750,0.100,-9.677,0.000672,-0.001450,0.003084,31.5,83.981,1559177295.179172993
0.4871,0.3751,0.3207,-0.773,0.118,-9.684,-0.000074,-0.000882,0.002000,31.6,83.991,1559177295.218291044
0.4871,0.3740,0.3221,-0.779,0.115,-9.649,0.002191,-0.000757,0.002185,31.5,83.981,1559177295.257464170
0.4861,0.3728,0.3208,-0.760,0.121,-9.648,0.000191,-0.001469,0.001778,31.5,83.991,1559177295.296469450
0.4882,0.3740,0.3220,-0.758,0.106,-9.676,0.000575,-0.001366,0.001596,31.5,83.994,1559177295.335699797
0.4850,0.3717,0.3222,-0.758,0.121,-9.688,-0.000181,-0.001231,0.001484,31.5,83.994,1559177295.374870300
0.4882,0.3728,0.3248,-0.782,0.113,-9.664,0.000910,-0.001198,0.002690,31.5,83.994,1559177295.413778305
0.4871,0.3751,0.3221,-0.760,0.108,-9.666,0.002894,-0.001308,0.001826,31.5,83.994,1559177295.452759266
0.4861,0.3717,0.3221,-0.764,0.089,-9.694,0.000537,-0.001431,0.001787,31.5,83.991,1559177295.491733789
0.4861,0.3694,0.3235,-0.759,0.121,-9.693,0.000822,0.000926,0.002515,31.5,83.994,1559177295.530484676
0.4893,0.3717,0.3220,-0.766,0.120,-9.697,0.001307,-0.001186,0.002577,31.5,83.991,1559177295.569531441
0.4861,0.3740,0.3235,-0.746,0.111,-9.697,0.001902,-0.001260,0.003609,31.5,83.994,1559177295.608493328
0.4871,0.3751,0.3207,-0.766,0.131,-9.648,-0.000095,-0.000254,0.002356,31.5,83.981,1559177295.647671461
0.4882,0.3728,0.3234,-0.772,0.086,-9.645,0.001194,-0.000440,0.001651,31.5,84.017,1559177295.804413319
0.4839,0.3740,0.3223,-0.758,0.110,-9.725,0.000518,-0.001983,0.001454,31.5,83.978,1559177295.843477011
0.4872,0.3717,0.3234,-0.781,0.110,-9.681,0.000977,-0.000166,0.001080,31.5,83.987,1559177295.882674217
0.4893,0.3717,0.3233,-0.772,0.083,-9.666,0.000868,-0.001219,0.002662,31.5,83.991,1559177295.922064304
0.4861,0.3717,0.3235,-0.757,0.109,-9.678,0.001307,-0.000119,0.001360,31.5,83.991,1559177295.961789608
0.4850,0.3740,0.3222,-0.759,0.115,-9.705,0.000750,-0.000551,0.001758,31.5,83.987,1559177296.001362801
0.4861,0.3694,0.3208,-0.781,0.122,-9.664,0.001302,-0.001181,0.002331,31.5,83.991,1559177296.040930748
0.4871,0.3740,0.3235,-0.765,0.117,-9.685,0.000967,-0.000167,0.002059,31.5,83.991,1559177296.080527306
0.4860,0.3751,0.3222,-0.754,0.096,-9.683,0.001016,-0.000416,0.001262,31.5,83.987,1559177296.120187283
0.4882,0.3728,0.3234,-0.746,0.108,-9.689,0.000893,-0.000669,0.002103,31.5,83.987,1559177296.159898996
0.4861,0.3728,0.3249,-0.762,0.089,-9.646,0.001445,-0.001492,0.001439,31.5,83.987,1559177296.199660301
0.4882,0.3717,0.3207,-0.764,0.111,-9.708,0.001243,-0.000931,0.001893,31.5,84.004,1559177296.239438057
0.4861,0.3728,0.3235,-0.768,0.087,-9.690,0.000910,-0.001846,0.001148,31.5,83.987,1559177296.278985739
0.4861,0.3728,0.3235,-0.754,0.111,-9.651,0.001723,-0.002054,0.002464,31.5,83.991,1559177296.318499327
0.4882,0.3740,0.3248,-0.765,0.119,-9.678,0.000586,-0.001075,0.001958,31.5,84.000,1559177296.358070374
0.4850,0.3740,0.3222,-0.760,0.120,-9.676,0.001018,-0.000827,0.001866,31.5,83.987,1559177296.397310019
0.4839,0.3763,0.3237,-0.760,0.123,-9.682,0.000928,-0.000134,0.001610,31.5,83.991,1559177296.436499119
0.4861,0.3728,0.3208,-0.768,0.121,-9.650,0.001096,-0.000730,0.001852,31.5,84.004,1559177296.475747585
0.4882,0.3705,0.3220,-0.764,0.117,-9.714,0.000948,-0.001482,0.001826,31.5,83.987,1559177296.515016556
0.4861,0.3717,0.3249,-0.781,0.115,-9.679,0.000293,-0.001107,0.001267,31.5,83.975,1559177296.554421663
0.4871,0.3751,0.3248,-0.768,0.122,-9.672,0.001458,-0.001167,0.001972,31.5,84.000,1559177296.593811512
0.4839,0.3717,0.3223,-0.767,0.108,-9.712,0.001014,-0.001106,0.001765,31.5,83.987,1559177296.633078814
0.4850,0.3717,0.3222,-0.750,0.115,-9.654,-0.000501,-0.000941,0.001131,31.5,83.987,1559177296.672454834
0.4882,0.3740,0.3234,-0.777,0.128,-9.708,0.000387,-0.000337,0.003130,31.5,83.987,1559177296.711550713
0.4861,0.3717,0.3235,-0.767,0.098,-9.673,0.001316,-0.001221,0.002464,31.5,84.000,1559177296.750764132
0.4850,0.3717,0.3208,-0.764,0.091,-9.723,0.002222,-0.000017,0.000629,31.5,83.987,1559177296.789911985
0.4871,0.3762,0.3208,-0.767,0.115,-9.683,0.000349,-0.000946,0.002680,31.5,83.997,1559177296.829110146
0.4882,0.3728,0.3234,-0.802,0.105,-9.690,0.000940,-0.000459,0.001570,31.5,83.997,1559177296.868249416
0.4871,0.3740,0.3221,-0.758,0.114,-9.701,0.000781,-0.000681,0.002410,31.5,84.000,1559177296.907435179
0.4882,0.3694,0.3234,-0.777,0.121,-9.686,0.000642,-0.000299,0.002039,31.5,84.000,1559177296.946544170
0.4871,0.3740,0.3221,-0.761,0.094,-9.636,-0.000259,-0.001563,0.002463,31.5,84.000,1559177296.985542536
0.4850,0.3740,0.3236,-0.776,0.129,-9.683,0.000333,-0.000486,0.002704,31.5,83.987,1559177297.024585962
0.4871,0.3728,0.3248,-0.760,0.112,-9.666,0.002121,-0.002360,0.003491,31.5,83.987,1559177297.063403130
0.4871,0.3728,0.3235,-0.754,0.121,-9.715,0.001117,-0.000893,0.002049,31.5,83.984,1559177297.102218151
0.4861,0.3740,0.3249,-0.770,0.120,-9.696,0.001068,-0.001709,0.002448,31.5,83.997,1559177297.140956879
0.4882,0.3705,0.3234,-0.760,0.116,-9.671,0.000315,-0.000174,0.001956,31.5,83.987,1559177297.179624081
0.4850,0.3728,0.3208,-0.750,0.112,-9.701,0.001846,-0.001383,0.002814,31.5,83.987,1559177297.218503714
0.4850,0.3751,0.3250,-0.776,0.114,-9.658,-0.000009,-0.001995,0.000571,31.5,83.975,1559177297.257404566
0.4882,0.3705,0.3207,-0.769,0.113,-9.682,-0.000029,-0.002148,0.002012,31.5,83.987,1559177297.296036243
0.4872,0.3717,0.3234,-0.770,0.131,-9.638,0.000239,-0.000122,0.001012,31.5,83.987,1559177297.334569693
0.4861,0.3740,0.3222,-0.778,0.124,-9.730,0.000796,-0.000909,0.002160,31.5,83.997,1559177297.490838289
0.4860,0.3740,0.3194,-0.774,0.108,-9.702,0.001143,-0.001427,0.001640,31.5,83.984,1559177297.530492306
0.4904,0.3728,0.3314,-0.765,0.127,-9.666,0.000869,-0.000523,0.001998,31.5,83.984,1559177297.570192575
0.4861,0.3740,0.3235,-0.762,0.113,-9.691,0.000440,-0.001131,0.001586,31.5,83.997,1559177297.610023260
0.4861,0.3717,0.3235,-0.777,0.092,-9.681,0.000274,-0.001710,0.000894,31.5,83.984,1559177297.649782658
0.4893,0.3728,0.3233,-0.763,0.100,-9.676,0.001301,-0.001424,0.001838,31.5,83.994,1559177297.689888239
0.4850,0.3740,0.3222,-0.797,0.126,-9.662,0.000922,-0.001956,0.002891,31.5,83.997,1559177297.730252981
0.4861,0.3740,0.3222,-0.774,0.131,-9.638,0.000882,-0.001518,0.002398,31.5,84.010,1559177297.770351410
0.4850,0.3740,0.3195,-0.795,0.103,-9.708,0.000432,-0.000085,0.002131,31.5,83.994,1559177297.810287952
0.4861,0.3728,0.3235,-0.745,0.100,-9.690,0.000725,-0.000104,0.001094,31.5,83.997,1559177297.850096464
0.4860,0.3740,0.3194,-0.771,0.085,-9.687,0.001229,-0.001068,0.001333,31.5,83.994,1559177297.889990091
0.4850,0.3740,0.3236,-0.784,0.133,-9.651,0.000873,-0.002049,0.001523,31.5,83.984,1559177297.929641247
0.4872,0.3717,0.3234,-0.761,0.115,-9.676,0.000753,0.000178,0.002296,31.5,83.994,1559177297.969404459
0.4850,0.3740,0.3222,-0.754,0.116,-9.666,0.000484,-0.001819,0.002109,31.5,83.981,1559177298.009219408
0.4861,0.3717,0.3249,-0.784,0.096,-9.677,0.001095,-0.000798,0.002180,31.5,83.997,1559177298.048912287
0.4861,0.3694,0.3221,-0.762,0.125,-9.673,0.000959,-0.001212,0.002211,31.5,83.994,1559177298.088465214
0.4861,0.3728,0.3235,-0.761,0.107,-9.637,0.000603,-0.001395,0.001638,31.5,83.994,1559177298.128190994
0.4882,0.3717,0.3261,-0.761,0.104,-9.695,0.001458,-0.001832,0.002404,31.5,83.994,1559177298.167775631
0.4871,0.3740,0.3207,-0.749,0.140,-9.699,0.001443,-0.001777,0.002559,31.5,83.994,1559177298.207371235
0.4850,0.3717,0.3249,-0.770,0.125,-9.676,0.000063,-0.001834,0.000574,31.5,83.994,1559177298.246691704
0.4850,0.3728,0.3222,-0.757,0.133,-9.737,-0.000181,-0.001453,0.002598,31.5,83.994,1559177298.285836935
0.4872,0.3717,0.3234,-0.752,0.106,-9.696,-0.000381,-0.002814,0.003129,31.5,84.007,1559177298.324864626
0.4871,0.3728,0.3207,-0.760,0.103,-9.672,0.002505,-0.000049,0.001732,31.5,83.994,1559177298.363703251
0.4882,0.3705,0.3220,-0.756,0.121,-9.699,0.001682,-0.001857,0.001493,31.5,83.994,1559177298.402585506
0.4850,0.3751,0.3195,-0.730,0.096,-9.684,0.001293,-0.001887,0.003086,31.5,83.984,1559177298.441473722
0.4882,0.3717,0.3207,-0.758,0.104,-9.684,0.000637,-0.001090,0.001160,31.5,83.994,1559177298.480075359
