compx,compy,compz,accelx,accely,accelz,gyrox,gyroy,gyroz,temp,baro,timestamp
0.434900,0.073100,0.226100,-0.197000,0.020000,-9.685000,0.000870,-0.000678,0.001879,30.100000,84.009000,1559172027.239763
0.436000,0.073100,0.224700,-0.194000,-0.010000,-9.688000,0.000417,-0.001507,0.001973,30.100000,84.013000,1559172027.346724
0.433900,0.072000,0.222100,-0.176000,0.002000,-9.676000,-0.000198,-0.001876,0.002229,30.100000,83.997000,1559172027.439977
0.435000,0.072000,0.224700,-0.178000,-0.027000,-9.667000,0.000619,-0.001549,0.002781,30.100000,84.013000,1559172027.547096
0.433900,0.073100,0.226200,-0.188000,0.025000,-9.677000,0.000392,-0.000957,0.002507,30.100000,83.997000,1559172027.639108
0.436000,0.072000,0.223300,-0.191000,-0.005000,-9.711000,0.000912,-0.002589,0.002777,30.100000,84.009000,1559172027.746223
0.434900,0.073100,0.224700,-0.164000,-0.007000,-9.713000,0.001010,-0.002744,0.002780,30.100000,83.997000,1559172027.840720
0.436000,0.072000,0.223300,-0.185000,0.008000,-9.714000,-0.000157,-0.001485,0.002909,30.100000,84.000000,1559172027.947842
0.436000,0.072000,0.226000,-0.201000,0.007000,-9.676000,0.000275,-0.001980,0.001609,30.100000,84.013000,1559172028.038630
0.434900,0.073100,0.224700,-0.183000,0.015000,-9.658000,0.001667,-0.002259,0.002607,30.100000,84.000000,1559172028.145943
0.433900,0.068600,0.226100,-0.158000,-0.003000,-9.655000,0.001535,-0.001621,0.002857,30.200000,84.000000,1559172028.240224
0.437100,0.070800,0.224600,-0.183000,0.022000,-9.693000,0.000545,0.000344,0.002093,30.200000,84.013000,1559172028.347347
0.435000,0.069700,0.223400,-0.181000,-0.016000,-9.676000,0.000269,-0.002089,0.001910,30.200000,84.000000,1559172028.439346
0.438200,0.072000,0.221800,-0.194000,0.002000,-9.674000,0.000878,-0.001463,0.004171,30.200000,83.997000,1559172028.547717
0.434900,0.070900,0.220600,-0.171000,-0.005000,-9.708000,0.000088,-0.002539,0.001671,30.200000,83.987000,1559172028.639719
0.436000,0.068600,0.223300,-0.149000,-0.000000,-9.718000,0.000621,-0.001850,0.001457,30.200000,84.000000,1559172028.745591
0.437100,0.073100,0.226000,-0.175000,0.016000,-9.645000,-0.000336,-0.003650,0.001859,30.200000,84.013000,1559172028.838843
0.435000,0.068600,0.220600,-0.165000,0.007000,-9.671000,0.001103,-0.002281,0.002456,30.200000,84.013000,1559172028.946027
0.437100,0.072000,0.226000,-0.193000,-0.008000,-9.692000,0.001755,-0.001981,0.002257,30.200000,83.987000,1559172029.040530
0.436000,0.068600,0.223300,-0.186000,0.010000,-9.673000,0.000648,-0.002525,0.002895,30.200000,84.000000,1559172029.146343
0.432800,0.073100,0.224900,-0.188000,-0.004000,-9.716000,-0.000025,-0.001538,0.002709,30.200000,84.000000,1559172029.240843
0.436000,0.069700,0.226000,-0.184000,0.003000,-9.659000,-0.000284,-0.001255,0.001688,30.200000,84.000000,1559172029.347967
0.436000,0.069700,0.223300,-0.185000,0.003000,-9.701000,0.001182,-0.001303,0.000780,30.200000,84.000000,1559172029.439969
0.436000,0.073100,0.226000,-0.172000,-0.007000,-9.675000,0.000316,-0.002116,0.003320,30.200000,83.987000,1559172029.547093
0.433900,0.074300,0.223500,-0.185000,0.017000,-9.680000,-0.000128,-0.003341,0.001078,30.200000,84.003000,1559172029.639173
0.436000,0.070900,0.221900,-0.177000,-0.010000,-9.663000,0.000672,-0.002905,0.001751,30.200000,84.016000,1559172029.746221
0.436000,0.070900,0.221900,-0.181000,-0.017000,-9.694000,0.000597,-0.001741,0.002816,30.200000,84.003000,1559172029.840777
0.436000,0.073100,0.223300,-0.188000,-0.006000,-9.699000,0.000191,-0.002016,0.002282,30.200000,84.003000,1559172029.946649
0.436000,0.075400,0.222000,-0.186000,0.007000,-9.684000,-0.000295,-0.001099,0.002720,30.200000,84.003000,1559172030.039845
0.437100,0.073100,0.224600,-0.174000,-0.014000,-9.665000,0.001016,-0.002703,0.002839,30.200000,84.000000,1559172030.148214
0.435000,0.072000,0.226100,-0.176000,0.001000,-9.714000,0.000807,-0.002658,0.002631,30.200000,84.003000,1559172030.240222
0.437100,0.070800,0.224600,-0.174000,0.010000,-9.694000,0.001428,-0.003379,0.003402,30.200000,83.990000,1559172030.346090
0.437100,0.072000,0.226000,-0.189000,-0.005000,-9.702000,-0.000060,-0.001749,0.003015,30.200000,84.003000,1559172030.439342
0.433900,0.070900,0.224800,-0.194000,-0.025000,-9.700000,0.000175,-0.003004,0.001950,30.200000,84.003000,1559172030.547714
0.433900,0.074300,0.223500,-0.161000,0.002000,-9.669000,0.001987,-0.000464,0.002170,30.200000,84.003000,1559172030.639739
0.433900,0.069700,0.222100,-0.182000,-0.004000,-9.667000,0.000733,-0.002575,0.003639,30.200000,83.990000,1559172030.746895
0.435000,0.072000,0.224700,-0.184000,0.021000,-9.680000,0.001654,-0.000179,0.002815,30.200000,84.000000,1559172030.838937
0.438200,0.070800,0.223200,-0.185000,0.001000,-9.706000,0.000486,-0.002397,0.002524,30.200000,84.003000,1559172030.947344
0.437100,0.073100,0.224600,-0.169000,-0.006000,-9.693000,0.001238,-0.001991,0.001618,30.200000,84.003000,1559172031.039219
0.433900,0.070900,0.226100,-0.180000,-0.011000,-9.685000,0.000787,-0.001200,0.002688,30.200000,84.003000,1559172031.146397
0.436000,0.072000,0.222000,-0.186000,-0.016000,-9.695000,0.000949,-0.001751,0.002230,30.200000,84.003000,1559172031.240845
0.436000,0.069700,0.223300,-0.173000,-0.032000,-9.710000,-0.000388,-0.002401,0.001618,30.200000,84.007000,1559172031.347965
0.433900,0.072000,0.220700,-0.182000,-0.005000,-9.708000,0.000777,-0.001459,0.002789,30.200000,84.003000,1559172031.438714
0.437100,0.073100,0.224600,-0.164000,0.012000,-9.660000,0.001641,-0.000934,0.001126,30.200000,84.007000,1559172031.545836
0.436000,0.074300,0.220600,-0.170000,-0.014000,-9.703000,0.000614,-0.002004,0.002717,30.200000,83.994000,1559172031.639094
0.432800,0.073100,0.223500,-0.181000,0.019000,-9.703000,0.001142,-0.000684,0.002137,30.200000,83.990000,1559172031.747569
0.434900,0.072000,0.223400,-0.178000,0.011000,-9.675000,0.000528,-0.000514,0.003041,30.200000,83.990000,1559172031.840797
0.434900,0.074300,0.224800,-0.156000,-0.035000,-9.695000,0.002040,-0.000939,0.002050,30.200000,84.007000,1559172031.936462
0.434900,0.073100,0.223400,-0.171000,-0.028000,-9.685000,0.000673,-0.001325,0.003374,30.200000,84.003000,1559172032.044837
0.437100,0.074300,0.223300,-0.186000,-0.000000,-9.680000,0.000542,-0.001901,0.001542,30.200000,84.003000,1559172032.139343
0.436000,0.070900,0.221900,-0.184000,-0.003000,-9.709000,-0.000157,-0.001553,0.002575,30.200000,84.003000,1559172032.247711
0.433900,0.070900,0.224800,-0.162000,-0.001000,-9.677000,0.001250,-0.001257,0.001567,30.200000,83.994000,1559172032.339715
0.437100,0.074300,0.226000,-0.154000,0.029000,-9.703000,0.000937,-0.000770,0.002137,30.200000,83.990000,1559172032.446837
0.432800,0.073100,0.223500,-0.161000,-0.011000,-9.690000,0.001044,-0.001492,0.001987,30.200000,83.994000,1559172032.538841
0.435000,0.068600,0.224700,-0.160000,0.007000,-9.678000,0.000989,-0.000871,0.002336,30.200000,83.994000,1559172032.646095
0.436000,0.072000,0.224700,-0.186000,-0.010000,-9.688000,0.001419,-0.000957,0.002088,30.200000,83.994000,1559172032.740560
0.435000,0.069700,0.224700,-0.158000,-0.025000,-9.684000,0.000403,-0.002375,0.001763,30.200000,83.994000,1559172032.846342
0.436000,0.073100,0.222000,-0.166000,-0.022000,-9.691000,0.001220,-0.002234,0.001491,30.200000,83.994000,1559172032.940838
0.433900,0.070900,0.223400,-0.165000,-0.009000,-9.696000,0.000441,-0.001591,0.001205,30.200000,83.994000,1559172033.047957
0.433900,0.073100,0.224800,-0.198000,-0.012000,-9.644000,0.000856,-0.002174,0.002307,30.200000,83.994000,1559172033.139960
0.433900,0.070900,0.224800,-0.192000,-0.002000,-9.737000,-0.000252,-0.001623,0.001965,30.200000,83.994000,1559172033.245833
0.436000,0.072000,0.222000,-0.173000,-0.021000,-9.677000,0.000470,-0.001588,0.002397,30.200000,84.007000,1559172033.340335
0.434900,0.072000,0.222000,-0.194000,-0.027000,-9.696000,0.000684,-0.001059,0.002259,30.200000,84.007000,1559172033.446207
0.436000,0.070900,0.224700,-0.190000,-0.002000,-9.676000,0.001103,-0.002008,0.001719,30.200000,84.007000,1559172033.540770
0.435000,0.072000,0.224700,-0.182000,0.011000,-9.678000,0.000516,0.000029,0.002283,30.200000,84.007000,1559172033.647889
0.437100,0.070800,0.226000,-0.173000,-0.012000,-9.664000,0.000004,-0.003319,0.001969,30.200000,83.994000,1559172033.739892
0.433900,0.069700,0.224800,-0.177000,-0.011000,-9.689000,0.000121,-0.001744,0.002469,30.200000,84.007000,1559172033.846956
0.437100,0.072000,0.221900,-0.190000,-0.013000,-9.702000,0.000246,-0.000347,0.002562,30.200000,83.997000,1559172033.938958
0.436000,0.074300,0.222000,-0.162000,-0.012000,-9.669000,0.000672,-0.001606,0.001904,30.200000,83.994000,1559172034.046086
0.437100,0.069700,0.221900,-0.198000,-0.016000,-9.684000,0.001268,-0.001230,0.001658,30.200000,84.007000,1559172034.139433
0.433900,0.069700,0.223400,-0.179000,-0.016000,-9.664000,0.000489,-0.001310,0.002698,30.200000,84.010000,1559172034.245221
0.433900,0.073100,0.220700,-0.216000,0.004000,-9.687000,0.001194,-0.001509,0.002004,30.200000,83.994000,1559172034.339752
0.434900,0.072000,0.222000,-0.166000,-0.012000,-9.682000,0.000760,-0.001858,0.002692,30.200000,84.007000,1559172034.448084
0.437100,0.073100,0.226000,-0.204000,0.004000,-9.706000,-0.000845,-0.002337,0.002308,30.200000,83.997000,1559172034.540144
0.432800,0.070900,0.226200,-0.189000,-0.015000,-9.662000,0.000769,-0.002100,0.002176,30.200000,84.007000,1559172034.645962
0.437100,0.070800,0.224600,-0.174000,0.000000,-9.694000,-0.000253,-0.000910,0.002632,30.200000,84.010000,1559172034.739213
0.434900,0.074300,0.223400,-0.190000,0.005000,-9.656000,0.000161,-0.001899,0.002104,30.200000,83.994000,1559172034.845082
0.436000,0.069700,0.220600,-0.197000,-0.011000,-9.701000,0.000549,-0.002115,0.002602,30.200000,83.997000,1559172034.939584
0.433900,0.069700,0.223400,-0.163000,-0.003000,-9.684000,0.001584,-0.001619,0.003121,30.200000,84.010000,1559172035.047959
0.437100,0.073100,0.220500,-0.150000,0.008000,-9.702000,0.000997,-0.002458,0.002058,30.200000,83.997000,1559172035.139961
0.434900,0.073100,0.222000,-0.177000,-0.003000,-9.719000,0.000411,-0.001384,0.002875,30.200000,83.997000,1559172035.247085
0.434900,0.073100,0.224700,-0.175000,0.002000,-9.689000,-0.000108,-0.001891,0.001472,30.200000,83.997000,1559172035.339170
0.436000,0.072000,0.227400,-0.170000,0.019000,-9.686000,0.000491,-0.001891,0.002416,30.200000,83.997000,1559172035.446265
0.437100,0.070800,0.223200,-0.165000,-0.016000,-9.690000,-0.000132,-0.003190,0.002896,30.200000,84.010000,1559172035.540764
0.435000,0.068600,0.220600,-0.180000,-0.021000,-9.669000,-0.000360,-0.003144,0.002296,30.200000,83.997000,1559172035.646723
0.437100,0.069700,0.221900,-0.179000,0.009000,-9.668000,0.000117,-0.002505,0.003109,30.200000,84.010000,1559172035.739840
0.433900,0.073100,0.224800,-0.180000,-0.006000,-9.644000,0.002446,-0.002329,0.002482,30.200000,83.997000,1559172035.848206
0.432800,0.070900,0.224800,-0.189000,0.005000,-9.698000,0.000972,0.000086,0.001858,30.200000,83.997000,1559172035.940210
0.436000,0.072000,0.224700,-0.192000,-0.020000,-9.679000,0.001196,-0.001401,0.002576,30.200000,83.997000,1559172036.046081
0.436000,0.068600,0.223300,-0.209000,-0.001000,-9.698000,0.000344,-0.002855,0.001765,30.200000,83.997000,1559172036.139335
0.434900,0.073100,0.220700,-0.185000,-0.022000,-9.699000,0.000082,-0.001640,0.001633,30.200000,83.984000,1559172036.247705
0.437100,0.070800,0.224600,-0.199000,-0.031000,-9.715000,0.000498,-0.003753,0.003308,30.200000,83.984000,1559172036.340958
0.433900,0.069700,0.224800,-0.168000,-0.005000,-9.678000,0.001501,-0.002786,0.001910,30.200000,83.997000,1559172036.446892
0.434900,0.074300,0.222000,-0.164000,-0.007000,-9.730000,0.001424,-0.001823,0.002736,30.200000,83.997000,1559172036.538893
0.436000,0.073100,0.223300,-0.185000,-0.001000,-9.699000,0.001019,-0.001491,0.003521,30.200000,83.988000,1559172036.645958
0.435000,0.069700,0.223400,-0.186000,-0.005000,-9.697000,0.000864,-0.002758,0.001005,30.200000,83.997000,1559172036.739209
0.435000,0.072000,0.224700,-0.181000,-0.011000,-9.692000,0.000802,-0.002165,0.003081,30.200000,84.013000,1559172036.845085
0.436000,0.069700,0.223300,-0.176000,-0.016000,-9.674000,0.000960,-0.001525,0.002336,30.200000,83.997000,1559172036.939598
0.436000,0.074300,0.223300,-0.182000,-0.007000,-9.667000,0.000991,-0.001157,0.002762,30.200000,84.000000,1559172037.046706
0.437100,0.073100,0.228700,-0.228000,0.014000,-9.711000,0.000010,-0.001473,0.002257,30.200000,83.997000,1559172037.140052
0.435000,0.069700,0.226100,-0.166000,0.009000,-9.700000,0.000973,-0.001430,0.002669,30.200000,84.000000,1559172037.247086
0.436000,0.072000,0.222000,-0.182000,0.007000,-9.675000,0.001240,-0.003020,0.003654,30.200000,83.997000,1559172037.340396
0.433900,0.072000,0.220700,-0.174000,-0.002000,-9.639000,-0.000290,-0.002431,0.001849,30.200000,84.013000,1559172037.446208
0.436000,0.068600,0.224700,-0.170000,-0.001000,-9.708000,0.000450,-0.001001,0.002787,30.200000,84.000000,1559172037.540706
0.436000,0.075400,0.224700,-0.187000,-0.025000,-9.693000,0.001248,-0.002452,0.002901,30.200000,84.010000,1559172037.647849
0.433900,0.073100,0.222100,-0.183000,-0.023000,-9.699000,0.001425,-0.001094,0.001978,30.200000,84.000000,1559172037.739836
0.436000,0.073100,0.223300,-0.185000,-0.014000,-9.656000,0.001688,-0.001769,0.001622,30.200000,84.000000,1559172037.845705
0.436000,0.073100,0.223300,-0.193000,-0.018000,-9.706000,0.001055,-0.001818,0.001938,30.200000,84.000000,1559172037.938956
0.436000,0.070900,0.223300,-0.171000,0.004000,-9.685000,0.002677,-0.002342,0.001870,30.200000,84.000000,1559172038.046122
0.434900,0.072000,0.223400,-0.176000,0.024000,-9.712000,0.006326,0.000574,0.004227,30.200000,84.013000,1559172038.139394
0.437100,0.072000,0.221900,-0.159000,-0.156000,-9.764000,0.036347,-0.016651,0.001155,30.200000,84.000000,1559172038.247763
0.437100,0.072000,0.226000,-0.071000,-0.254000,-9.733000,0.003746,-0.003583,-0.000908,30.200000,84.000000,1559172038.341013
0.436000,0.073100,0.223300,-0.236000,-0.027000,-9.564000,0.033238,-0.014990,0.005865,30.200000,83.988000,1559172038.446830
0.437100,0.072000,0.221900,-0.185000,0.097000,-9.755000,0.008789,-0.005678,0.004497,30.200000,84.000000,1559172038.538829
0.436000,0.070900,0.224700,-0.229000,0.072000,-9.635000,-0.011622,-0.001547,0.006506,30.200000,84.000000,1559172038.646008
0.437100,0.072000,0.223300,-0.104000,0.041000,-9.750000,-0.019194,0.006701,0.009634,30.200000,84.000000,1559172038.740462
0.436000,0.072000,0.223300,-0.180000,-0.038000,-9.713000,0.003169,-0.002581,0.004278,30.200000,84.000000,1559172038.846326
0.433900,0.072000,0.222100,-0.215000,0.014000,-9.706000,-0.000317,-0.003231,0.008817,30.200000,84.004000,1559172038.940829
0.437100,0.073100,0.219200,-0.156000,0.072000,-9.674000,-0.005571,-0.000404,0.003640,30.200000,84.000000,1559172039.047953
0.437100,0.069700,0.220500,-0.196000,0.061000,-9.652000,-0.004536,0.002490,0.004664,30.200000,84.004000,1559172039.140014
0.436000,0.073100,0.217900,-0.196000,-0.003000,-9.670000,0.004333,0.000074,0.002886,30.200000,84.004000,1559172039.245886
0.436000,0.070900,0.223300,-0.165000,0.018000,-9.681000,0.003838,-0.001262,0.008853,30.200000,83.988000,1559172039.339180
0.437100,0.069700,0.219200,-0.189000,-0.020000,-9.705000,0.005144,-0.000916,0.003968,30.200000,83.988000,1559172039.446326
0.436000,0.072000,0.223300,-0.224000,-0.007000,-9.743000,-0.001952,-0.002001,0.000805,30.200000,84.000000,1559172039.540705
0.434900,0.069700,0.219300,-0.173000,-0.018000,-9.655000,0.001241,-0.000263,0.006207,30.200000,84.004000,1559172039.646576
0.434900,0.070900,0.220600,-0.203000,-0.003000,-9.665000,0.002515,-0.001582,0.002509,30.200000,84.000000,1559172039.739825
0.437100,0.070800,0.221900,-0.193000,0.033000,-9.703000,-0.002811,0.001651,0.002762,30.200000,84.004000,1559172039.846950
0.436000,0.070900,0.221900,-0.188000,-0.018000,-9.729000,-0.000632,0.001594,0.001632,30.200000,84.004000,1559172039.940204
0.435000,0.070900,0.224700,-0.157000,-0.088000,-9.674000,0.006884,0.003733,-0.002240,30.200000,84.004000,1559172040.046075
0.435000,0.069700,0.222000,-0.266000,0.010000,-9.704000,0.010073,-0.005212,-0.001676,30.200000,84.004000,1559172040.139423
0.437100,0.069700,0.221900,-0.220000,0.165000,-9.650000,-0.012317,0.011226,0.004087,30.200000,84.000000,1559172040.247766
0.436000,0.070900,0.226000,-0.166000,0.063000,-9.716000,-0.010875,0.006570,0.004781,30.200000,84.004000,1559172040.339765
0.436000,0.067400,0.221900,-0.148000,0.025000,-9.757000,-0.013332,0.001874,0.002985,30.200000,84.004000,1559172040.446826
0.435000,0.069700,0.223400,-0.131000,0.006000,-9.683000,0.001220,-0.001804,0.001445,30.200000,84.004000,1559172040.540078
0.432800,0.070900,0.224800,-0.151000,0.013000,-9.694000,0.002929,-0.002355,0.001723,30.200000,83.991000,1559172040.647201
0.435000,0.069700,0.223400,-0.171000,0.035000,-9.719000,0.000870,-0.002061,0.001592,30.200000,84.004000,1559172040.740451
0.435000,0.072000,0.224700,-0.148000,0.046000,-9.616000,-0.000999,-0.002226,0.003412,30.200000,83.991000,1559172040.847573
0.437100,0.068600,0.223200,-0.192000,0.011000,-9.705000,0.003753,-0.003336,0.002432,30.200000,84.004000,1559172040.940826
0.434900,0.072000,0.222000,-0.146000,0.062000,-9.605000,-0.004295,-0.001616,0.004142,30.200000,84.004000,1559172041.047950
0.436000,0.068600,0.223300,-0.152000,0.015000,-9.677000,0.011904,-0.006443,0.000189,30.200000,83.991000,1559172041.140011
0.436000,0.068600,0.221900,-0.194000,0.051000,-9.700000,0.005475,-0.004340,0.001295,30.200000,83.991000,1559172041.247076
0.433900,0.073100,0.222100,-0.163000,0.054000,-9.654000,-0.003671,-0.002720,0.002521,30.200000,83.994000,1559172041.339078
0.435000,0.069700,0.226100,-0.167000,0.063000,-9.703000,-0.003219,-0.000007,0.003160,30.200000,83.991000,1559172041.446196
0.436000,0.069700,0.223300,-0.163000,0.038000,-9.710000,0.002626,-0.001776,0.003109,30.200000,83.991000,1559172041.540699
0.436000,0.070900,0.226000,-0.194000,0.027000,-9.676000,0.001723,-0.003063,0.002148,30.300000,84.004000,1559172041.647883
0.437100,0.066300,0.225900,-0.159000,0.029000,-9.661000,-0.000370,-0.002937,0.003493,30.300000,84.004000,1559172041.739871
0.434900,0.072000,0.223400,-0.162000,0.022000,-9.681000,-0.000274,-0.001605,0.002988,30.300000,83.994000,1559172041.846953
0.436000,0.070900,0.223300,-0.137000,0.045000,-9.700000,0.000699,-0.001902,0.002044,30.300000,83.994000,1559172041.939051
0.433900,0.069700,0.226100,-0.131000,0.043000,-9.708000,0.000775,-0.001862,0.001619,30.300000,83.994000,1559172042.046072
0.436000,0.070900,0.223300,-0.149000,0.012000,-9.695000,0.000977,-0.001088,0.003125,30.300000,84.007000,1559172042.139330
0.434900,0.072000,0.222000,-0.178000,0.050000,-9.688000,0.001973,-0.000334,0.002988,30.300000,84.007000,1559172042.247699
0.437100,0.069700,0.227300,-0.154000,0.025000,-9.713000,0.003202,-0.001825,0.002484,30.300000,84.007000,1559172042.340949
0.435000,0.070900,0.223400,-0.167000,0.035000,-9.658000,0.001688,-0.002398,0.001314,30.300000,83.994000,1559172042.448071
0.436000,0.070900,0.224700,-0.161000,0.044000,-9.690000,0.001649,-0.002982,0.001680,30.300000,83.994000,1559172042.538823
0.436000,0.072000,0.227400,-0.164000,0.043000,-9.706000,0.000673,-0.002930,0.001792,30.300000,84.004000,1559172042.645949
0.435000,0.070900,0.224700,-0.159000,0.020000,-9.665000,0.000074,-0.002102,0.001986,30.300000,83.991000,1559172042.739282
0.432800,0.070900,0.220800,-0.164000,0.032000,-9.692000,0.000456,-0.001317,0.002469,30.300000,84.007000,1559172042.846418
0.433900,0.070900,0.222100,-0.186000,0.035000,-9.668000,0.000129,-0.001432,0.002421,30.300000,84.007000,1559172042.939631
0.432800,0.069700,0.223500,-0.175000,0.016000,-9.697000,0.000202,-0.000606,0.001472,30.300000,84.007000,1559172043.046696
0.435000,0.072000,0.226100,-0.155000,0.041000,-9.672000,0.000566,-0.000990,0.003321,30.300000,83.994000,1559172043.140043
0.436000,0.073100,0.224700,-0.187000,0.016000,-9.721000,0.000380,-0.001506,0.002350,30.300000,83.998000,1559172043.247078
0.432800,0.068600,0.223500,-0.169000,0.022000,-9.726000,0.001059,-0.000503,0.002363,30.300000,83.981000,1559172043.340324
0.435000,0.069700,0.222000,-0.160000,0.031000,-9.712000,-0.000076,-0.000526,0.002052,30.300000,84.007000,1559172043.446193
0.436000,0.072000,0.224700,-0.164000,0.023000,-9.670000,0.000160,-0.001818,0.001992,30.300000,83.994000,1559172043.540696
0.433900,0.072000,0.223400,-0.171000,0.017000,-9.676000,0.000007,-0.003069,0.002270,30.300000,83.994000,1559172043.647824
0.435000,0.068600,0.222000,-0.169000,0.032000,-9.673000,0.001340,-0.002126,0.002118,30.300000,83.994000,1559172043.739879
0.432800,0.069700,0.224800,-0.189000,0.038000,-9.669000,0.001858,-0.002698,0.002324,30.300000,84.007000,1559172043.845695
0.435000,0.068600,0.226100,-0.157000,0.035000,-9.697000,0.001466,-0.003270,0.003147,30.300000,83.994000,1559172043.940197
0.433900,0.070900,0.226100,-0.147000,0.039000,-9.671000,0.001238,-0.002191,0.001405,30.300000,84.007000,1559172044.047319
0.436100,0.067400,0.226000,-0.187000,0.030000,-9.684000,0.001109,-0.001664,0.002262,30.300000,83.998000,1559172044.139325
0.432800,0.070900,0.223500,-0.157000,0.044000,-9.665000,0.000289,-0.001641,0.002124,30.300000,84.010000,1559172044.247694
0.433900,0.070900,0.223400,-0.170000,0.053000,-9.698000,0.001460,-0.000570,0.001574,30.300000,83.994000,1559172044.340946
0.437100,0.069700,0.223200,-0.142000,0.034000,-9.686000,0.001276,-0.001259,0.002359,30.300000,83.994000,1559172044.448069
0.437100,0.069700,0.221900,-0.161000,0.039000,-9.722000,0.000417,-0.001398,0.002297,30.300000,83.994000,1559172044.538880
0.434900,0.073100,0.220700,-0.161000,0.047000,-9.650000,0.001010,-0.000775,0.002176,30.300000,83.994000,1559172044.646005
0.435000,0.069700,0.220600,-0.152000,0.013000,-9.666000,0.001254,-0.000960,0.002819,30.300000,83.985000,1559172044.740451
0.435000,0.069700,0.223400,-0.178000,0.024000,-9.676000,0.000467,-0.000500,0.002814,30.300000,83.994000,1559172044.846319
0.433900,0.070900,0.223400,-0.160000,0.023000,-9.678000,0.000092,-0.000993,0.001891,30.300000,84.010000,1559172044.939572
0.433900,0.070900,0.223400,-0.148000,0.038000,-9.668000,-0.000195,-0.001914,0.002044,30.300000,83.998000,1559172045.047944
0.433900,0.070900,0.223400,-0.170000,0.030000,-9.708000,0.000652,-0.001195,0.002470,30.300000,83.998000,1559172045.139947
0.432800,0.070900,0.222100,-0.178000,0.044000,-9.724000,0.000237,-0.000657,0.002473,30.300000,84.010000,1559172045.247069
0.433900,0.072000,0.222100,-0.173000,0.055000,-9.682000,0.000776,-0.001849,0.001937,30.300000,83.998000,1559172045.339134
0.434900,0.072000,0.223400,-0.148000,0.019000,-9.685000,0.000664,-0.002003,0.000486,30.300000,83.981000,1559172045.446248
0.435000,0.069700,0.226100,-0.166000,0.028000,-9.695000,0.000431,-0.002157,0.002723,30.300000,84.010000,1559172045.540733
0.436000,0.069700,0.223300,-0.163000,0.051000,-9.679000,0.000587,-0.001907,0.001046,30.300000,83.998000,1559172045.646570
0.432800,0.069700,0.223500,-0.165000,0.022000,-9.683000,0.000572,-0.001539,0.000701,30.300000,83.998000,1559172045.739819
0.432800,0.069700,0.219400,-0.165000,0.047000,-9.674000,-0.000208,-0.002000,0.002064,30.300000,83.998000,1559172045.846941
0.433900,0.072000,0.223400,-0.171000,0.030000,-9.698000,0.000109,-0.001271,0.001817,30.300000,83.998000,1559172045.940195
0.432800,0.070900,0.222100,-0.172000,0.027000,-9.680000,0.000437,-0.001662,0.002708,30.300000,84.010000,1559172046.046065
0.431700,0.069700,0.223500,-0.167000,0.022000,-9.693000,0.001057,-0.002964,0.001924,30.300000,83.998000,1559172046.139416
0.431700,0.067500,0.224900,-0.169000,0.029000,-9.659000,0.000815,-0.001139,0.002371,30.300000,84.014000,1559172046.247757
0.435000,0.069700,0.222000,-0.178000,0.027000,-9.678000,0.000278,-0.003397,0.002776,30.300000,83.998000,1559172046.341041
0.433900,0.070900,0.223400,-0.176000,0.027000,-9.699000,0.000942,-0.003392,0.001831,30.300000,83.998000,1559172046.446937
0.434900,0.070900,0.222000,-0.168000,0.036000,-9.696000,0.001366,-0.001699,0.001797,30.300000,83.998000,1559172046.538819
0.433900,0.068600,0.226100,-0.166000,0.023000,-9.710000,0.000190,-0.001257,0.002097,30.300000,84.010000,1559172046.645943
0.433900,0.069700,0.223400,-0.180000,0.015000,-9.663000,0.000695,-0.003488,0.001884,30.300000,84.001000,1559172046.739195
0.436000,0.070900,0.223300,-0.167000,0.042000,-9.748000,0.000799,-0.001595,0.001925,30.300000,83.998000,1559172046.845067
0.433900,0.067400,0.222000,-0.155000,0.046000,-9.675000,0.000645,0.000070,0.002162,30.300000,84.001000,1559172046.940822
0.435000,0.072000,0.224700,-0.170000,0.036000,-9.698000,0.000814,-0.001719,0.002997,30.300000,84.001000,1559172047.047949
0.433900,0.070900,0.237000,-0.159000,0.037000,-9.687000,0.000417,-0.000827,0.001439,30.300000,83.998000,1559172047.139943
0.433900,0.070900,0.219300,-0.159000,0.023000,-9.694000,0.000911,-0.001644,0.002602,30.300000,84.001000,1559172047.247150
0.435000,0.069700,0.224700,-0.200000,0.049000,-9.681000,-0.000219,-0.001939,0.002655,30.300000,84.001000,1559172047.339131
0.432800,0.069700,0.222100,-0.142000,0.037000,-9.691000,-0.000936,-0.001750,0.002162,30.300000,84.001000,1559172047.446188
0.436000,0.070900,0.223300,-0.187000,0.030000,-9.711000,0.000584,-0.001185,0.001411,30.300000,83.988000,1559172047.540690
0.433900,0.070900,0.223400,-0.166000,0.052000,-9.697000,0.001140,-0.002402,0.001950,30.300000,84.001000,1559172047.646624
0.436000,0.070900,0.224700,-0.175000,0.037000,-9.693000,0.001059,-0.002109,0.002349,30.300000,83.988000,1559172047.739837
0.436000,0.070900,0.227400,-0.160000,0.033000,-9.707000,0.001122,-0.001395,0.001957,30.300000,84.001000,1559172047.848192
0.433900,0.069700,0.222100,-0.171000,0.045000,-9.683000,0.000370,-0.002247,0.003280,30.300000,84.001000,1559172047.940223
0.435000,0.069700,0.222000,-0.168000,0.051000,-9.682000,0.000671,-0.001250,0.002501,30.300000,84.001000,1559172048.046067
0.437100,0.069700,0.221900,-0.163000,0.040000,-9.695000,-0.000259,-0.002021,0.002269,30.300000,83.988000,1559172048.139379
0.435000,0.069700,0.222000,-0.160000,0.011000,-9.713000,0.001211,-0.001700,0.002710,30.300000,83.991000,1559172048.247692
0.436000,0.068600,0.220600,-0.173000,0.040000,-9.659000,0.000619,-0.001776,0.002664,30.300000,84.001000,1559172048.340936
0.433900,0.069700,0.224800,-0.166000,0.049000,-9.696000,0.001188,-0.001873,0.001081,30.300000,84.001000,1559172048.446815
0.431700,0.068600,0.222200,-0.154000,0.032000,-9.687000,0.000848,-0.002911,0.002350,30.300000,84.001000,1559172048.538817
0.432800,0.070900,0.224800,-0.152000,0.028000,-9.664000,0.000375,-0.001051,0.002570,30.300000,84.004000,1559172048.645944
0.433900,0.072000,0.223400,-0.166000,0.035000,-9.699000,0.000616,-0.002342,0.002296,30.300000,83.988000,1559172048.740439
0.435000,0.069700,0.220600,-0.173000,0.041000,-9.700000,0.000488,-0.000269,0.002317,30.300000,83.991000,1559172048.846318
0.437100,0.070800,0.224600,-0.140000,0.009000,-9.688000,0.000430,-0.001982,0.003002,30.300000,84.004000,1559172048.939625
0.433900,0.068600,0.224800,-0.178000,0.033000,-9.686000,0.000794,-0.001074,0.002542,30.300000,84.001000,1559172049.046690
0.434900,0.069700,0.219300,-0.164000,0.048000,-9.696000,0.000320,-0.001363,0.001551,30.300000,84.017000,1559172049.140032
0.432800,0.069700,0.223500,-0.168000,0.064000,-9.729000,0.001705,-0.001339,0.001524,30.300000,83.991000,1559172049.247110
0.433900,0.069700,0.222100,-0.169000,0.024000,-9.690000,0.001127,-0.001621,0.002410,30.300000,83.991000,1559172049.339069
0.432800,0.070900,0.223500,-0.161000,0.025000,-9.691000,0.000823,-0.000701,0.001676,30.300000,84.004000,1559172049.446186
0.438200,0.072000,0.224600,-0.190000,0.039000,-9.701000,0.001943,-0.002133,0.001685,30.300000,84.004000,1559172049.540689
0.432800,0.069700,0.223500,-0.166000,0.013000,-9.695000,0.001527,-0.001879,0.001711,30.300000,84.004000,1559172049.647813
0.435000,0.068600,0.224700,-0.148000,0.028000,-9.657000,0.000709,-0.002183,0.002033,30.300000,84.004000,1559172049.738624
0.434900,0.073100,0.222000,-0.176000,0.036000,-9.685000,0.000701,-0.001845,0.001439,30.300000,83.991000,1559172049.846948
0.435000,0.069700,0.226100,-0.158000,0.025000,-9.692000,0.001426,-0.002444,0.001126,30.300000,84.004000,1559172049.940191
0.432800,0.070900,0.222100,-0.188000,0.019000,-9.698000,0.001817,-0.001835,0.001667,30.300000,84.017000,1559172050.047314
0.432800,0.070900,0.220800,-0.160000,0.015000,-9.679000,0.000861,-0.001871,0.002643,30.300000,83.991000,1559172050.139314
0.432800,0.072000,0.223500,-0.166000,0.064000,-9.711000,0.000844,-0.000725,0.002616,30.300000,84.017000,1559172050.247686
0.435000,0.068600,0.224700,-0.156000,0.039000,-9.692000,0.000756,-0.001368,0.002031,30.300000,84.004000,1559172050.340935
0.436000,0.069700,0.226000,-0.162000,0.048000,-9.669000,0.001069,-0.002164,0.001804,30.300000,83.991000,1559172050.446810
0.432800,0.069700,0.220800,-0.175000,0.019000,-9.689000,0.000375,-0.002675,0.003028,30.300000,83.991000,1559172050.538873
0.436000,0.070900,0.226000,-0.160000,0.029000,-9.696000,0.000439,-0.003382,0.001952,30.300000,84.004000,1559172050.645998
0.435000,0.070900,0.223400,-0.164000,0.040000,-9.721000,0.001003,-0.002937,0.001992,30.300000,84.004000,1559172050.740443
0.432800,0.070900,0.224800,-0.161000,0.046000,-9.710000,0.000937,-0.001005,0.002204,30.300000,84.008000,1559172050.846317
0.436000,0.072000,0.226000,-0.162000,0.039000,-9.699000,0.001516,-0.002012,0.001699,30.300000,84.004000,1559172050.940814
0.436100,0.067400,0.223300,-0.176000,0.017000,-9.711000,0.000819,-0.000817,0.002655,30.300000,83.991000,1559172051.047936
0.431700,0.069700,0.222200,-0.176000,0.014000,-9.688000,0.000718,-0.002229,0.001514,30.300000,84.004000,1559172051.139936
0.432800,0.070900,0.226200,-0.147000,0.031000,-9.658000,-0.000245,-0.000964,0.002959,30.300000,83.995000,1559172051.245809
0.436000,0.068600,0.223300,-0.160000,0.027000,-9.666000,0.001153,-0.001631,0.001685,30.300000,84.004000,1559172051.339147
0.432800,0.072000,0.224900,-0.164000,0.027000,-9.712000,0.000953,-0.001301,0.001777,30.300000,84.004000,1559172051.444991
0.436100,0.066300,0.224600,-0.171000,0.033000,-9.694000,0.000685,-0.001267,0.001233,30.300000,84.008000,1559172051.540687
0.437100,0.069700,0.224600,-0.165000,0.043000,-9.680000,0.000417,-0.002084,0.002111,30.300000,84.008000,1559172051.636437
0.434900,0.072000,0.220700,-0.186000,0.016000,-9.709000,0.001027,-0.000778,0.002150,30.300000,83.995000,1559172051.744810
0.433900,0.070900,0.224800,-0.188000,0.015000,-9.699000,0.001802,-0.002202,0.002763,30.300000,83.991000,1559172051.839314
0.432800,0.067400,0.223500,-0.153000,0.021000,-9.673000,0.000362,-0.001026,0.002442,30.300000,84.008000,1559172051.947695
0.432800,0.069700,0.222100,-0.174000,0.046000,-9.689000,0.000434,-0.002679,0.002003,30.300000,84.008000,1559172052.040950
0.435000,0.068600,0.227400,-0.178000,0.025000,-9.720000,0.000870,-0.001914,0.001846,30.300000,83.991000,1559172052.146869
0.435000,0.068600,0.224700,-0.176000,0.049000,-9.682000,0.000801,-0.002648,0.001871,30.300000,83.995000,1559172052.238819
0.436000,0.068600,0.223300,-0.145000,0.051000,-9.681000,0.002095,-0.000759,0.002762,30.300000,84.008000,1559172052.346039
0.433900,0.069700,0.223400,-0.154000,0.023000,-9.683000,0.000531,-0.001540,0.001883,30.300000,83.995000,1559172052.440491
0.434900,0.072000,0.222000,-0.158000,0.034000,-9.661000,0.001282,-0.001793,0.002293,30.300000,83.995000,1559172052.546309
0.433900,0.069700,0.223400,-0.147000,0.041000,-9.686000,0.000723,-0.002056,0.003321,30.300000,83.995000,1559172052.640816
0.436000,0.069700,0.223300,-0.172000,0.043000,-9.638000,0.000209,-0.002425,0.002150,30.300000,83.995000,1559172052.747934
0.434900,0.072000,0.223400,-0.163000,0.003000,-9.679000,0.000616,-0.000854,0.001684,30.300000,84.008000,1559172052.839937
0.432800,0.067400,0.227500,-0.187000,0.035000,-9.699000,-0.000242,-0.001881,0.002154,30.300000,84.008000,1559172052.947107
0.435000,0.068600,0.226100,-0.153000,0.039000,-9.685000,0.001532,-0.002367,0.000869,30.300000,83.995000,1559172053.039063
0.437100,0.068600,0.224600,-0.166000,0.044000,-9.672000,0.000351,-0.001620,0.001972,30.300000,83.995000,1559172053.146183
0.435000,0.069700,0.224700,-0.163000,0.033000,-9.696000,0.001579,-0.000756,0.002269,30.300000,83.995000,1559172053.240740
0.437100,0.072000,0.224600,-0.174000,0.026000,-9.671000,0.000946,-0.001074,0.001704,30.300000,83.995000,1559172053.336455
0.435000,0.069700,0.224700,-0.157000,0.040000,-9.688000,0.000868,-0.001315,0.001572,30.300000,83.995000,1559172053.444812
0.432800,0.067400,0.222100,-0.170000,0.025000,-9.719000,-0.000419,-0.000205,0.002266,30.300000,83.998000,1559172053.539313
0.433900,0.068600,0.222000,-0.163000,0.026000,-9.655000,0.001679,-0.000664,0.001643,30.300000,83.995000,1559172053.647736
0.435000,0.068600,0.224700,-0.170000,0.018000,-9.675000,0.001588,-0.001048,0.002360,30.300000,84.008000,1559172053.740937
0.432800,0.068600,0.223500,-0.170000,0.004000,-9.658000,0.000024,-0.000405,0.002642,30.300000,83.995000,1559172053.846809
0.436100,0.067400,0.224600,-0.167000,0.035000,-9.675000,-0.000067,-0.000697,0.003892,30.300000,83.995000,1559172053.938804
0.433900,0.072000,0.223400,-0.152000,0.040000,-9.698000,0.000479,-0.002727,0.002829,30.300000,83.995000,1559172054.046012
0.437100,0.067400,0.223200,-0.181000,0.026000,-9.690000,0.001109,-0.001870,0.002537,30.300000,83.995000,1559172054.140487
0.435000,0.070900,0.223400,-0.183000,0.012000,-9.703000,0.001057,-0.002387,0.002768,30.300000,83.995000,1559172054.246311
0.433900,0.068600,0.222000,-0.165000,0.022000,-9.681000,0.000094,-0.000843,0.002388,30.300000,83.998000,1559172054.340807
0.432800,0.070900,0.223500,-0.173000,0.054000,-9.669000,0.000877,-0.001501,0.001724,30.300000,83.995000,1559172054.447929
0.435000,0.069700,0.223400,-0.178000,0.042000,-9.674000,0.000987,-0.000508,0.002775,30.300000,83.995000,1559172054.538679
0.433900,0.066300,0.222000,-0.185000,0.047000,-9.677000,-0.000096,-0.001069,0.003107,30.300000,84.011000,1559172054.645805
0.433900,0.070900,0.222100,-0.170000,0.038000,-9.698000,0.000606,-0.001994,0.002558,30.300000,83.985000,1559172054.740305
0.436000,0.070900,0.223300,-0.183000,0.016000,-9.698000,0.001722,-0.000939,0.002822,30.300000,84.011000,1559172054.847428
0.433900,0.070900,0.223400,-0.167000,0.048000,-9.675000,0.001074,-0.000684,0.001710,30.300000,83.998000,1559172054.939509
0.432800,0.069700,0.222100,-0.152000,0.050000,-9.691000,-0.000135,-0.003016,0.003002,30.300000,83.998000,1559172055.047867
0.435000,0.069700,0.226100,-0.164000,0.053000,-9.693000,0.001231,-0.002985,0.002537,30.300000,83.998000,1559172055.141246
0.436000,0.069700,0.223300,-0.154000,0.020000,-9.668000,0.000573,-0.000944,0.002931,30.300000,83.985000,1559172055.246938
0.435000,0.070900,0.224700,-0.168000,0.016000,-9.733000,0.001315,-0.000557,0.002484,30.300000,83.998000,1559172055.338929
0.433900,0.070900,0.224800,-0.163000,0.032000,-9.706000,0.000536,-0.002371,0.002044,30.300000,83.985000,1559172055.446052
0.435000,0.068600,0.224700,-0.172000,0.007000,-9.722000,-0.000228,-0.001638,0.001551,30.300000,83.985000,1559172055.540555
0.431700,0.070900,0.223500,-0.172000,0.048000,-9.694000,0.000725,-0.002821,0.002056,30.300000,83.985000,1559172055.646431
0.432800,0.074300,0.222100,-0.175000,0.031000,-9.676000,0.001564,0.000279,0.002495,30.300000,83.998000,1559172055.740929
0.433900,0.068600,0.223400,-0.167000,0.046000,-9.675000,0.000832,-0.002536,0.002842,30.300000,83.998000,1559172055.848054
0.433900,0.069700,0.223400,-0.159000,0.029000,-9.690000,0.000954,-0.002585,0.003347,30.300000,83.985000,1559172055.940110
0.434900,0.070900,0.220600,-0.168000,0.032000,-9.698000,0.000539,-0.002220,0.002935,30.300000,83.998000,1559172056.045936
0.433900,0.070900,0.223400,-0.172000,0.043000,-9.674000,0.001711,-0.002164,0.003042,30.400000,83.998000,1559172056.139180
0.435000,0.070900,0.223400,-0.162000,0.033000,-9.673000,-0.000672,-0.001520,0.002587,30.400000,83.998000,1559172056.246302
0.435000,0.069700,0.223400,-0.183000,0.037000,-9.678000,0.000678,-0.002710,0.003054,30.400000,83.998000,1559172056.340803
0.438200,0.070800,0.223200,-0.151000,0.029000,-9.676000,0.002084,-0.001949,0.002216,30.400000,83.998000,1559172056.446675
0.435000,0.069700,0.224700,-0.170000,0.032000,-9.663000,0.000443,-0.001466,0.002144,30.400000,83.998000,1559172056.539929
0.437100,0.069700,0.223200,-0.157000,0.039000,-9.669000,0.001424,-0.001281,0.001459,30.400000,83.998000,1559172056.647186
0.436100,0.067400,0.223300,-0.180000,0.020000,-9.676000,0.001199,-0.001800,0.002296,30.400000,83.998000,1559172056.740384
0.433900,0.073100,0.220700,-0.143000,0.023000,-9.702000,0.000869,-0.001779,0.002217,30.400000,83.998000,1559172056.846183
0.434900,0.072000,0.222000,-0.164000,0.051000,-9.689000,0.001238,-0.001068,0.001791,30.400000,84.002000,1559172056.940677
0.432800,0.069700,0.222100,-0.184000,-0.000000,-9.693000,0.000673,-0.000795,0.002157,30.400000,83.998000,1559172057.047804
0.434900,0.070900,0.219300,-0.176000,0.039000,-9.704000,0.000610,-0.002184,0.001858,30.400000,84.002000,1559172057.139816
0.433900,0.070900,0.227500,-0.156000,0.042000,-9.700000,0.001029,-0.000694,0.002722,30.400000,83.998000,1559172057.246924
0.436000,0.072000,0.223300,-0.186000,0.041000,-9.702000,0.001069,-0.002071,0.001844,30.400000,83.985000,1559172057.340179
0.433900,0.067400,0.222000,-0.178000,0.025000,-9.713000,0.000944,-0.001730,0.003126,30.400000,84.002000,1559172057.447303
0.433900,0.070900,0.223400,-0.192000,0.011000,-9.679000,0.000466,-0.001262,0.002873,30.400000,84.005000,1559172057.539303
0.432800,0.070900,0.222100,-0.188000,0.033000,-9.643000,0.000181,-0.001120,0.003531,30.400000,84.011000,1559172057.647773
0.435000,0.069700,0.222000,-0.181000,0.013000,-9.696000,0.000854,-0.001822,0.001617,30.400000,83.998000,1559172057.740986
0.435000,0.069700,0.223400,-0.158000,0.040000,-9.700000,0.000858,-0.002597,0.003002,30.400000,84.002000,1559172057.846801
0.433900,0.072000,0.222100,-0.170000,0.041000,-9.690000,0.000513,-0.002161,0.001180,30.400000,84.014000,1559172057.940048
0.433900,0.067400,0.223400,-0.151000,0.016000,-9.687000,0.001104,-0.002459,0.002992,30.400000,84.002000,1559172058.047202
0.435000,0.072000,0.224700,-0.178000,0.032000,-9.696000,-0.000330,-0.000757,0.002296,30.400000,83.998000,1559172058.140513
0.435000,0.072000,0.226100,-0.173000,0.045000,-9.685000,0.000415,-0.001900,0.002443,30.400000,84.002000,1559172058.246308
0.435000,0.068600,0.222000,-0.145000,0.014000,-9.693000,0.001112,-0.001080,0.001866,30.400000,84.002000,1559172058.340801
0.431700,0.070900,0.222200,-0.165000,0.051000,-9.678000,0.000471,-0.000262,0.002706,30.400000,84.002000,1559172058.447927
0.436000,0.069700,0.223300,-0.167000,0.046000,-9.683000,0.000419,-0.001208,0.002962,30.400000,84.002000,1559172058.541231
0.435000,0.070900,0.226100,-0.139000,0.043000,-9.699000,0.000098,-0.001489,0.001745,30.400000,84.002000,1559172058.647054
0.433900,0.069700,0.224800,-0.176000,0.035000,-9.673000,0.001757,-0.001978,0.002628,30.400000,83.989000,1559172058.739053
0.433900,0.068600,0.224800,-0.159000,0.047000,-9.673000,-0.000126,-0.000862,0.002493,30.400000,83.989000,1559172058.846174
0.435000,0.070900,0.224700,-0.166000,0.013000,-9.719000,0.000274,-0.001871,0.002715,30.400000,84.002000,1559172058.940673
0.432800,0.068600,0.223500,-0.154000,0.037000,-9.706000,0.001156,-0.001842,0.001472,30.400000,84.002000,1559172059.046548
0.436000,0.072000,0.223300,-0.162000,0.035000,-9.675000,0.001145,-0.000789,0.002149,30.400000,84.002000,1559172059.139795
0.433900,0.070900,0.223400,-0.172000,0.047000,-9.685000,0.000984,-0.002425,0.001969,30.400000,84.014000,1559172059.248176
0.435000,0.068600,0.224700,-0.150000,0.031000,-9.718000,0.000807,-0.000910,0.001606,30.400000,84.014000,1559172059.340250
0.431700,0.072000,0.222200,-0.158000,0.062000,-9.720000,0.001568,-0.001917,0.001872,30.400000,84.002000,1559172059.446047
0.435000,0.068600,0.220600,-0.159000,0.030000,-9.692000,0.000563,-0.002476,0.002070,30.400000,84.005000,1559172059.539308
0.433900,0.067400,0.224800,-0.165000,0.054000,-9.688000,0.001162,-0.003020,0.002918,30.400000,84.002000,1559172059.647767
0.435000,0.070900,0.223400,-0.151000,0.006000,-9.682000,0.002361,-0.001781,0.002882,30.400000,84.002000,1559172059.739685
0.432800,0.069700,0.224800,-0.161000,0.037000,-9.719000,0.000262,-0.000842,0.001951,30.400000,84.002000,1559172059.846799
0.433900,0.069700,0.224800,-0.177000,0.052000,-9.705000,0.000721,-0.002016,0.003095,30.400000,84.005000,1559172059.940049
0.434900,0.073100,0.223400,-0.174000,0.032000,-9.713000,0.001482,-0.001250,0.002351,30.400000,84.005000,1559172060.045922
0.437100,0.068600,0.219100,-0.179000,0.045000,-9.670000,0.000367,-0.000264,0.003227,30.400000,84.002000,1559172060.140502
0.432800,0.070900,0.224800,-0.167000,0.032000,-9.667000,0.002185,-0.001500,0.000726,30.400000,83.989000,1559172060.246376
0.437100,0.068600,0.224600,-0.165000,0.007000,-9.701000,0.001629,-0.000704,0.001872,30.400000,84.002000,1559172060.340803
0.436000,0.069700,0.226000,-0.169000,0.020000,-9.674000,0.000791,-0.001781,0.002230,30.400000,84.005000,1559172060.447963
0.432800,0.070900,0.223500,-0.163000,0.018000,-9.704000,0.000836,-0.001938,0.002723,30.400000,83.992000,1559172060.539923
0.432800,0.072000,0.224900,-0.179000,0.037000,-9.675000,0.000951,-0.001969,0.002977,30.400000,84.002000,1559172060.645797
0.437100,0.069700,0.220500,-0.150000,0.038000,-9.665000,-0.000240,-0.001580,0.002203,30.400000,83.989000,1559172060.739048
0.436000,0.070900,0.221900,-0.156000,0.036000,-9.687000,0.000428,-0.001416,0.001036,30.400000,83.992000,1559172060.846170
0.437100,0.070800,0.224600,-0.178000,0.029000,-9.691000,0.000815,-0.001619,0.002403,30.400000,83.992000,1559172060.939417
0.433900,0.067400,0.222000,-0.157000,0.030000,-9.687000,0.000566,-0.001878,0.001872,30.400000,83.992000,1559172061.047939
0.435000,0.072000,0.224700,-0.147000,0.034000,-9.692000,0.000084,-0.000387,0.001500,30.400000,84.005000,1559172061.141141
0.437100,0.072000,0.224600,-0.152000,0.032000,-9.681000,0.000933,-0.001310,0.002867,30.400000,84.005000,1559172061.246929
0.435000,0.068600,0.224700,-0.149000,0.023000,-9.659000,0.000838,-0.000326,0.002575,30.400000,83.995000,1559172061.338920
0.433900,0.072000,0.222100,-0.153000,0.023000,-9.672000,0.000822,-0.001221,0.002189,30.400000,83.992000,1559172061.446042
0.436000,0.072000,0.223300,-0.185000,0.026000,-9.674000,0.000569,0.000747,0.001937,30.400000,84.005000,1559172061.539297
0.432800,0.069700,0.226200,-0.159000,0.045000,-9.739000,0.000775,-0.002620,0.001952,30.400000,84.005000,1559172061.645172
0.434900,0.070900,0.222000,-0.146000,0.042000,-9.703000,0.000621,-0.000848,0.002523,30.400000,84.005000,1559172061.739671
0.437100,0.070800,0.221900,-0.169000,0.033000,-9.685000,0.001040,-0.001993,0.001566,30.400000,84.005000,1559172061.846852
0.432800,0.070900,0.223500,-0.169000,0.029000,-9.685000,0.001324,-0.002596,0.001368,30.400000,83.992000,1559172061.940043
0.435000,0.070900,0.223400,-0.169000,0.049000,-9.697000,0.000038,-0.001617,0.002244,30.400000,84.005000,1559172062.047174
0.436000,0.070900,0.221900,-0.163000,0.031000,-9.690000,-0.000932,-0.001520,0.002904,30.400000,84.005000,1559172062.139183
0.435000,0.069700,0.220600,-0.164000,0.042000,-9.703000,0.000739,-0.003593,0.002152,30.400000,83.992000,1559172062.246291
0.433900,0.072000,0.220700,-0.157000,0.056000,-9.720000,0.000886,-0.001754,0.001704,30.400000,83.992000,1559172062.340796
0.432800,0.068600,0.222100,-0.173000,0.049000,-9.670000,-0.001091,-0.001586,0.001371,30.400000,84.008000,1559172062.446666
0.432800,0.068600,0.224800,-0.167000,0.019000,-9.685000,0.000808,-0.002939,0.001568,30.400000,84.005000,1559172062.539918
0.437100,0.073100,0.221900,-0.164000,0.037000,-9.655000,0.000723,-0.003055,0.003267,30.400000,84.005000,1559172062.647253
0.436000,0.070900,0.223300,-0.167000,0.045000,-9.690000,0.001231,-0.001988,0.002938,30.400000,84.008000,1559172062.740382
0.435000,0.069700,0.228800,-0.163000,0.039000,-9.661000,0.000672,-0.000728,0.002375,30.400000,83.995000,1559172062.847420
0.435000,0.068600,0.222000,-0.165000,0.050000,-9.687000,0.000669,-0.002083,0.001777,30.400000,83.983000,1559172062.940668
0.431700,0.070900,0.223500,-0.168000,0.033000,-9.695000,0.000564,-0.003584,0.001831,30.400000,83.995000,1559172063.047794
0.433900,0.070900,0.220700,-0.161000,0.029000,-9.678000,0.000654,-0.001377,0.001691,30.400000,83.995000,1559172063.141047
0.432800,0.069700,0.224800,-0.171000,0.029000,-9.699000,0.000526,-0.002502,0.002564,30.400000,83.992000,1559172063.246915
0.433900,0.073100,0.223400,-0.192000,0.036000,-9.680000,0.000708,-0.003224,0.002608,30.400000,83.983000,1559172063.338955
0.433900,0.069700,0.222100,-0.154000,0.045000,-9.688000,0.001793,-0.001417,0.002404,30.400000,84.008000,1559172063.446045
0.437100,0.070800,0.224600,-0.182000,0.032000,-9.692000,0.001323,-0.002953,0.001619,30.400000,84.008000,1559172063.540623
0.433900,0.068600,0.220700,-0.179000,0.022000,-9.666000,0.001428,-0.001262,0.001276,30.400000,83.995000,1559172063.646418
0.440300,0.070800,0.221700,-0.180000,0.053000,-9.692000,-0.000138,-0.001238,0.002092,30.400000,83.995000,1559172063.739665
