compx,compy,compz,accelx,accely,accelz,gyrox,gyroy,gyroz,temp,baro,timestamp
0.4318,0.0595,0.2235,-0.053,0.171,-9.644,-0.000025,-0.001566,0.001217,32.7,83.996,1559177150.231777191
0.4339,0.0595,0.2220,-0.053,0.166,-9.654,0.001112,-0.000332,-0.000365,32.7,83.996,1559177150.268622637
0.4361,0.0629,0.2232,-0.050,0.166,-9.674,0.000829,-0.000690,0.002829,32.7,83.999,1559177150.305614710
0.4318,0.0606,0.2207,-0.037,0.176,-9.668,0.001930,-0.001181,0.000872,32.7,83.983,1559177150.342411995
0.4350,0.0606,0.2247,-0.026,0.161,-9.677,0.001651,-0.001929,0.002283,32.7,83.996,1559177150.379284143
0.4318,0.0617,0.2208,-0.063,0.159,-9.703,0.000756,-0.002008,0.001668,32.7,83.983,1559177150.429669619
0.4307,0.0640,0.2208,-0.065,0.161,-9.700,0.000558,-0.000296,0.000329,32.7,83.983,1559177150.484555721
0.4329,0.0606,0.2180,-0.045,0.180,-9.704,0.000550,-0.001115,0.001951,32.7,83.986,1559177150.526893139
0.4339,0.0629,0.2206,-0.026,0.169,-9.695,0.000780,-0.002056,0.002297,32.7,83.996,1559177150.567761898
0.4318,0.0617,0.2221,-0.054,0.166,-9.691,0.000778,-0.001381,0.001392,32.7,83.983,1559177150.607784510
0.4329,0.0617,0.2234,-0.056,0.180,-9.695,0.001014,-0.000638,0.002816,32.7,83.983,1559177150.647284985
0.4318,0.0606,0.2180,-0.045,0.166,-9.707,0.001523,-0.000952,0.000457,32.7,83.996,1559177150.686554670
0.4318,0.0618,0.2194,-0.042,0.169,-9.709,0.000902,-0.001861,0.001246,32.7,83.999,1559177150.725868702
0.4339,0.0640,0.2193,-0.046,0.158,-9.717,0.000958,0.000675,0.001392,32.7,83.996,1559177150.764865160
0.4329,0.0595,0.2220,-0.062,0.176,-9.656,0.000453,-0.000528,0.002552,32.7,83.983,1559177150.803985596
0.4328,0.0617,0.2193,-0.059,0.169,-9.687,0.001241,-0.001191,0.000785,32.7,83.996,1559177150.843343258
0.4350,0.0606,0.2192,-0.030,0.173,-9.712,0.000302,-0.000791,0.001610,32.7,83.983,1559177150.882306099
0.4318,0.0652,0.2221,-0.045,0.161,-9.707,0.002110,-0.001321,0.001951,32.7,83.996,1559177150.921149492
0.4307,0.0595,0.2208,-0.042,0.170,-9.678,0.001965,-0.000944,0.002762,32.7,83.996,1559177150.959992409
0.4329,0.0617,0.2207,-0.055,0.186,-9.677,0.001594,-0.000790,0.002763,32.7,83.986,1559177150.998804569
0.4339,0.0606,0.2193,-0.052,0.185,-9.694,0.000729,-0.001080,0.000580,32.7,83.983,1559177151.037777901
0.4329,0.0606,0.2220,-0.063,0.171,-9.716,0.001026,-0.001163,0.001566,32.7,83.996,1559177151.077080965
0.4307,0.0606,0.2194,-0.035,0.189,-9.699,0.001001,-0.001176,0.001898,32.7,83.983,1559177151.116571903
0.4339,0.0617,0.2234,-0.066,0.160,-9.669,0.001859,-0.001311,0.001358,32.7,83.996,1559177151.156355858
0.4318,0.0617,0.2221,-0.039,0.165,-9.650,0.001291,-0.001011,0.001270,32.7,83.983,1559177151.195930243
0.4329,0.0595,0.2220,-0.032,0.190,-9.659,0.001271,-0.001625,0.001977,32.7,83.986,1559177151.235258102
0.4339,0.0617,0.2247,-0.047,0.170,-9.680,0.000788,-0.001218,0.001447,32.7,83.983,1559177151.274726868
0.4307,0.0618,0.2222,-0.052,0.166,-9.694,0.001030,-0.000578,0.001285,32.7,83.983,1559177151.314026594
0.4339,0.0606,0.2220,-0.075,0.159,-9.683,0.001826,-0.001006,0.001458,32.7,83.996,1559177151.353444099
0.4350,0.0606,0.2219,-0.042,0.174,-9.668,0.001621,-0.002034,0.001348,32.7,83.983,1559177151.392967224
0.4350,0.0583,0.2205,-0.032,0.175,-9.704,0.001520,-0.000909,0.001590,32.7,83.983,1559177151.432193995
0.4318,0.0606,0.2221,-0.053,0.157,-9.676,0.000977,-0.001431,0.001564,32.7,83.996,1559177151.471406460
0.4350,0.0606,0.2247,-0.052,0.169,-9.699,0.001640,-0.001041,0.003373,32.7,83.996,1559177151.510597706
0.4318,0.0606,0.2235,-0.038,0.175,-9.684,0.000645,-0.000346,0.001661,32.7,83.996,1559177151.549765348
0.4350,0.0617,0.2219,-0.055,0.170,-9.692,0.000676,-0.000797,0.001206,32.7,83.983,1559177151.589229345
0.4318,0.0606,0.2207,-0.072,0.181,-9.677,0.001131,-0.001579,0.000727,32.7,83.996,1559177151.628678799
0.4318,0.0606,0.2235,-0.056,0.189,-9.671,0.001393,-0.000836,0.002043,32.7,83.983,1559177151.668235302
0.4296,0.0640,0.2236,-0.056,0.170,-9.689,0.001177,-0.002345,0.001871,32.7,83.983,1559177151.707742214
0.4350,0.0583,0.2233,-0.057,0.173,-9.688,0.001023,-0.000084,0.001565,32.7,83.996,1559177151.748148918
0.4318,0.0617,0.2248,-0.043,0.159,-9.660,0.000867,-0.001951,0.001870,32.7,83.996,1559177151.787376881
0.4339,0.0629,0.2247,-0.046,0.162,-9.670,0.002308,-0.001881,0.000833,32.7,83.996,1559177151.826534510
0.4328,0.0629,0.2207,-0.033,0.180,-9.692,0.001555,-0.002139,0.001978,32.7,83.996,1559177151.865536451
0.4329,0.0595,0.2193,-0.066,0.201,-9.658,0.001475,-0.000720,0.002600,32.7,83.983,1559177151.904337168
0.4350,0.0606,0.2206,-0.051,0.164,-9.713,0.000609,-0.001301,0.002154,32.7,83.983,1559177151.943154335
0.4350,0.0617,0.2206,-0.051,0.164,-9.714,0.001158,-0.000513,0.002381,32.7,83.996,1559177151.982031584
0.4329,0.0617,0.2234,-0.036,0.175,-9.719,0.001051,-0.000271,0.001379,32.7,83.983,1559177152.021105528
0.4307,0.0618,0.2222,-0.049,0.162,-9.717,0.000974,-0.000041,0.002244,32.7,83.996,1559177152.060007334
0.4339,0.0617,0.2193,-0.034,0.167,-9.682,0.001512,-0.001182,0.001672,32.7,83.983,1559177152.098897934
0.4307,0.0629,0.2195,-0.043,0.156,-9.685,0.000952,-0.001402,0.002123,32.7,83.996,1559177152.138034582
0.4339,0.0629,0.2206,-0.059,0.174,-9.676,0.001326,-0.000972,0.001684,32.7,83.996,1559177152.177144289
0.4339,0.0629,0.2206,-0.061,0.171,-9.709,0.001795,-0.000631,0.001699,32.7,83.983,1559177152.216019630
0.4307,0.0629,0.2195,-0.056,0.177,-9.702,0.001224,-0.001341,0.001457,32.7,83.996,1559177152.254865885
0.4339,0.0606,0.2220,-0.055,0.203,-9.678,0.001133,-0.000851,0.001938,32.7,83.996,1559177152.293627977
0.4339,0.0595,0.2193,-0.063,0.177,-9.683,0.001090,-0.001208,0.001927,32.7,83.996,1559177152.332136631
0.4307,0.0606,0.2222,-0.054,0.177,-9.689,0.000280,-0.001614,0.001470,32.7,83.983,1559177152.370592833
0.4318,0.0617,0.2221,-0.060,0.182,-9.698,0.000566,0.000269,0.002173,32.7,83.996,1559177152.409460306
0.4318,0.0618,0.2194,-0.082,0.190,-9.694,0.000612,-0.001903,0.002044,32.7,83.996,1559177152.448468685
0.4329,0.0606,0.2193,-0.057,0.187,-9.716,0.001452,-0.001962,0.002370,32.7,83.996,1559177152.487596035
0.4340,0.0595,0.2247,-0.003,0.163,-9.698,0.001320,-0.001560,0.001378,32.7,83.983,1559177152.526930332
0.4361,0.0617,0.2192,-0.041,0.195,-9.720,0.002038,-0.000608,0.000422,32.7,83.996,1559177152.566023827
0.4329,0.0606,0.2220,-0.039,0.174,-9.694,0.001643,-0.000290,0.001237,32.7,83.996,1559177152.605544329
0.4328,0.0629,0.2207,-0.053,0.189,-9.725,0.001735,-0.002385,0.000572,32.7,83.996,1559177152.645301104
0.4328,0.0629,0.2207,-0.042,0.175,-9.718,0.001059,-0.000914,0.002309,32.7,83.983,1559177152.685056686
0.4318,0.0617,0.2221,-0.054,0.187,-9.678,-0.000047,0.000572,0.002444,32.7,83.996,1559177152.724780560
0.4339,0.0640,0.2234,-0.043,0.159,-9.695,0.000472,-0.000983,0.001897,32.7,83.983,1559177152.764081478
0.4328,0.0629,0.2193,-0.058,0.178,-9.690,0.000489,-0.001708,0.000660,32.7,83.996,1559177152.803249121
0.4329,0.0629,0.2234,-0.045,0.181,-9.650,0.000787,-0.001006,0.001802,32.7,83.983,1559177152.842547655
0.4339,0.0629,0.2234,-0.051,0.136,-9.677,0.000525,-0.001701,0.002523,32.7,83.996,1559177152.881911039
0.4350,0.0629,0.2192,-0.075,0.171,-9.706,0.000788,-0.001640,0.001938,32.7,83.983,1559177152.921642065
0.4329,0.0617,0.2221,-0.040,0.164,-9.689,0.001678,-0.001031,0.001825,32.7,83.996,1559177152.962207556
0.4339,0.0629,0.2220,-0.054,0.164,-9.700,0.000866,-0.001478,0.002413,32.7,83.996,1559177153.001780033
0.4339,0.0629,0.2179,-0.045,0.158,-9.713,0.001181,-0.001463,0.001489,32.7,83.996,1559177153.041314840
0.4318,0.0640,0.2221,-0.032,0.185,-9.673,0.000881,-0.001030,0.002029,32.7,83.996,1559177153.080754995
0.4350,0.0595,0.2219,-0.030,0.179,-9.685,0.001102,-0.000231,0.001392,32.7,83.983,1559177153.120375872
0.4350,0.0640,0.2206,-0.053,0.191,-9.672,0.000226,-0.001248,-0.000046,32.7,83.983,1559177153.160316229
0.4307,0.0629,0.2263,-0.044,0.195,-9.704,0.000500,-0.000846,0.002589,32.7,83.996,1559177153.199943542
0.4318,0.0595,0.2194,-0.067,0.161,-9.683,0.000996,-0.001568,0.001001,32.7,83.983,1559177153.239812613
0.4350,0.0617,0.2192,-0.052,0.163,-9.687,0.001517,0.000362,0.001472,32.7,83.983,1559177153.279191017
0.4318,0.0629,0.2235,-0.043,0.153,-9.671,0.002270,0.000146,0.001499,32.7,83.996,1559177153.318217039
0.4318,0.0617,0.2208,-0.041,0.156,-9.718,0.002843,-0.000941,0.001857,32.7,83.983,1559177153.357211351
0.4329,0.0606,0.2207,-0.072,0.185,-9.677,0.000100,-0.000939,0.001301,32.7,84.009,1559177153.396232128
0.4329,0.0606,0.2207,-0.044,0.173,-9.720,0.000648,-0.002085,0.002191,32.7,83.996,1559177153.435175180
0.4350,0.0617,0.2206,-0.046,0.202,-9.692,0.000990,-0.002403,0.001578,32.7,83.996,1559177153.474223375
0.4350,0.0606,0.2219,-0.051,0.177,-9.691,0.000788,-0.002488,0.001340,32.7,83.983,1559177153.513176680
0.4307,0.0618,0.2222,-0.057,0.171,-9.712,0.000755,-0.000558,0.001720,32.7,83.983,1559177153.552381277
0.4318,0.0617,0.2221,-0.072,0.160,-9.667,0.001115,-0.001316,0.002432,32.7,83.992,1559177153.591600418
0.4329,0.0617,0.2207,-0.033,0.167,-9.698,0.000638,-0.000945,0.001300,32.7,83.996,1559177153.630709648
0.4307,0.0629,0.2208,-0.047,0.175,-9.710,0.001702,-0.000311,0.002203,32.7,83.983,1559177153.669922113
0.4318,0.0606,0.2207,-0.060,0.173,-9.714,0.001711,-0.001219,0.001619,32.7,83.996,1559177153.709269285
0.4350,0.0606,0.2206,-0.056,0.176,-9.716,0.002055,-0.000735,0.001590,32.7,83.983,1559177153.748458147
0.4318,0.0606,0.2180,-0.052,0.182,-9.687,0.000382,-0.001943,0.002163,32.7,83.983,1559177153.787636518
0.4350,0.0617,0.2192,-0.055,0.172,-9.689,0.001784,-0.000981,0.001206,32.7,83.983,1559177153.826836586
0.4329,0.0606,0.2193,-0.073,0.177,-9.716,0.001815,-0.002097,0.000951,32.7,83.983,1559177153.865752459
0.4318,0.0618,0.2180,-0.030,0.166,-9.678,0.001185,-0.002012,0.002164,32.7,83.983,1559177153.904445887
0.4328,0.0640,0.2207,-0.057,0.154,-9.700,0.001781,-0.000755,0.001272,32.7,83.983,1559177153.943047762
0.4339,0.0617,0.2193,-0.041,0.164,-9.688,0.000241,-0.000394,0.001238,32.7,83.983,1559177153.981254578
0.4329,0.0606,0.2220,-0.046,0.176,-9.682,0.001314,-0.000776,0.000804,32.7,83.996,1559177154.019694090
0.4340,0.0583,0.2206,-0.064,0.183,-9.712,0.000392,-0.002181,0.002175,32.7,83.996,1559177154.058050156
0.4329,0.0595,0.2220,-0.054,0.167,-9.691,0.001462,-0.001890,0.001501,32.7,83.983,1559177154.096263409
0.4307,0.0618,0.2208,-0.019,0.180,-9.709,0.001298,-0.001898,0.001110,32.7,83.996,1559177154.134649277
0.4328,0.0617,0.2193,-0.072,0.147,-9.663,-0.000028,-0.000368,0.001179,32.7,83.996,1559177154.173031569
0.4339,0.0595,0.2179,-0.034,0.191,-9.702,0.000184,-0.001510,0.001180,32.7,83.970,1559177154.211609602
0.4339,0.0606,0.2206,-0.049,0.182,-9.680,0.001722,-0.000681,0.002590,32.7,83.983,1559177154.250326633
0.4339,0.0629,0.2206,-0.059,0.173,-9.691,-0.000183,-0.001327,0.001617,32.7,83.983,1559177154.304872513
0.4382,0.0617,0.2245,-0.040,0.162,-9.675,0.000324,-0.001243,0.002311,32.7,83.996,1559177154.305586815
0.4318,0.0618,0.2194,-0.050,0.192,-9.701,0.000683,-0.002115,0.001445,32.7,83.983,1559177154.306177855
0.4328,0.0629,0.2207,-0.042,0.148,-9.669,0.000481,-0.000879,0.001403,32.7,83.983,1559177154.306756735
0.4318,0.0629,0.2208,-0.034,0.153,-9.682,0.001338,-0.001368,0.002656,32.7,83.983,1559177154.307333469
0.4318,0.0617,0.2208,-0.050,0.180,-9.703,0.000954,-0.001253,0.001327,32.7,83.983,1559177154.307905912
0.4318,0.0640,0.2221,-0.048,0.157,-9.689,0.000552,-0.002158,0.001325,32.7,83.983,1559177154.308475733
0.4328,0.0629,0.2207,-0.072,0.154,-9.665,0.000468,0.000364,0.002125,32.7,83.996,1559177154.309042931
0.4307,0.0595,0.2222,-0.040,0.146,-9.675,-0.000094,-0.001019,0.002335,32.7,83.996,1559177154.309606552
0.4328,0.0640,0.2207,-0.044,0.172,-9.716,0.000162,-0.000032,0.000927,32.7,83.996,1559177154.310170174
0.4328,0.0629,0.2221,-0.054,0.182,-9.675,0.001226,-0.001078,0.001629,32.7,83.983,1559177154.310730457
0.4350,0.0617,0.2206,-0.040,0.181,-9.675,0.000092,-0.000175,0.002163,32.7,83.996,1559177154.311289787
0.4328,0.0640,0.2207,-0.037,0.194,-9.686,0.001025,-0.000014,0.002150,32.7,83.983,1559177154.311843395
0.4329,0.0595,0.2207,-0.037,0.169,-9.696,0.001270,0.000039,0.002428,32.7,83.983,1559177154.312394619
0.4328,0.0617,0.2193,-0.030,0.177,-9.704,0.000286,-0.001207,0.001516,32.7,83.996,1559177154.312942982
0.4329,0.0617,0.2221,-0.046,0.171,-9.705,0.000659,-0.001314,0.001725,32.7,83.983,1559177154.313490391
0.4328,0.0629,0.2221,-0.057,0.172,-9.695,0.001227,-0.002232,0.002093,32.7,83.996,1559177154.315484285
0.4350,0.0617,0.2179,-0.048,0.171,-9.693,0.000782,-0.001687,0.001498,32.7,83.996,1559177154.316043139
0.4318,0.0617,0.2235,-0.042,0.164,-9.656,0.001622,-0.001295,0.001009,32.7,83.983,1559177154.316578150
0.4339,0.0640,0.2193,-0.028,0.158,-9.710,0.000587,-0.000821,0.001751,32.7,83.996,1559177154.317112684
0.4350,0.0583,0.2233,-0.044,0.167,-9.699,0.000401,-0.001163,0.000780,32.7,83.983,1559177154.317645073
0.4307,0.0618,0.2222,-0.045,0.174,-9.696,0.002455,-0.000877,0.001393,32.7,83.986,1559177154.318172216
0.4318,0.0606,0.2221,-0.029,0.163,-9.674,0.000565,-0.000331,0.001629,32.7,83.983,1559177154.318696976
0.4318,0.0629,0.2208,-0.027,0.170,-9.666,0.000396,-0.001812,0.002141,32.7,83.983,1559177154.319216967
0.4318,0.0606,0.2207,-0.049,0.168,-9.687,0.001492,-0.001666,0.001232,32.7,83.983,1559177154.319735527
0.4329,0.0606,0.2207,-0.049,0.165,-9.675,0.001314,-0.001294,0.001378,32.7,83.996,1559177154.320250511
0.4350,0.0629,0.2206,-0.052,0.183,-9.685,0.001599,-0.001783,0.001246,32.7,83.996,1559177154.320764542
0.4328,0.0629,0.2207,-0.045,0.170,-9.658,0.001298,-0.000202,0.001204,32.7,83.983,1559177154.321276188
0.4318,0.0640,0.2221,-0.059,0.175,-9.703,0.001750,-0.001461,0.002117,32.7,83.983,1559177154.321784496
0.4350,0.0617,0.2192,-0.073,0.155,-9.697,0.000854,-0.000966,0.001677,32.7,83.983,1559177154.322291374
0.4328,0.0617,0.2193,-0.038,0.190,-9.671,0.000077,-0.000897,0.001548,32.7,83.983,1559177154.322794914
0.4329,0.0606,0.2234,-0.041,0.154,-9.681,0.001145,-0.001056,0.002021,32.7,83.983,1559177154.323293924
0.4296,0.0640,0.2209,-0.047,0.181,-9.679,0.000874,0.000257,0.001657,32.7,83.983,1559177154.323793411
0.4328,0.0629,0.2207,-0.037,0.176,-9.711,0.001210,-0.001501,0.002815,32.7,83.983,1559177154.324290037
0.4339,0.0617,0.2220,-0.034,0.186,-9.656,0.000943,-0.001830,0.001644,32.7,83.996,1559177154.324781895
0.4350,0.0629,0.2233,-0.050,0.166,-9.671,0.002342,-0.001291,0.001406,32.7,83.992,1559177154.325283289
0.4318,0.0640,0.2221,-0.040,0.197,-9.687,0.001971,-0.001626,0.002323,32.7,83.986,1559177154.325775385
0.4350,0.0617,0.2219,-0.043,0.149,-9.695,0.001183,-0.000699,0.000660,32.7,83.996,1559177154.326281071
0.4328,0.0640,0.2207,-0.036,0.181,-9.681,0.001277,-0.000927,0.001725,32.7,83.983,1559177154.326794147
0.4328,0.0629,0.2221,-0.026,0.175,-9.679,0.000865,-0.000261,0.001179,32.7,83.983,1559177154.327304363
0.4318,0.0606,0.2207,-0.041,0.151,-9.693,-0.000042,-0.001747,0.001240,32.7,83.996,1559177154.327811003
0.4350,0.0617,0.2233,-0.056,0.172,-9.690,0.002800,-0.000666,0.000778,32.7,83.983,1559177154.328316212
0.4307,0.0595,0.2222,-0.054,0.159,-9.662,0.000835,-0.001385,0.000905,32.7,83.983,1559177154.328814983
0.4275,0.0606,0.2251,-0.047,0.161,-9.698,0.001149,-0.001565,0.001953,32.7,83.970,1559177154.329313517
0.4340,0.0583,0.2220,-0.061,0.162,-9.739,0.000617,-0.000887,0.001991,32.7,83.983,1559177154.329812288
0.4329,0.0583,0.2207,-0.016,0.175,-9.708,0.000225,-0.001526,0.003322,32.7,83.996,1559177154.330303907
0.4339,0.0629,0.2220,-0.036,0.169,-9.682,0.001328,-0.000197,0.000899,32.7,83.983,1559177154.330794573
0.4350,0.0617,0.2206,-0.053,0.185,-9.711,0.000895,-0.001326,0.001287,32.7,83.983,1559177154.331283331
0.4307,0.0640,0.2222,-0.042,0.180,-9.693,0.000566,0.000428,0.001337,32.7,83.983,1559177154.349103212
0.4328,0.0640,0.2221,-0.035,0.163,-9.679,0.001429,-0.000866,0.001498,32.7,83.986,1559177154.349604130
0.4350,0.0617,0.2206,-0.035,0.162,-9.677,0.001397,-0.001846,0.002125,32.7,83.996,1559177154.350096941
0.4318,0.0606,0.2207,-0.068,0.181,-9.711,0.000688,-0.002573,0.001956,32.7,83.983,1559177154.351867437
0.4318,0.0617,0.2235,-0.065,0.164,-9.691,0.001187,-0.001577,0.001277,32.7,83.996,1559177154.440095663
0.4350,0.0629,0.2206,-0.051,0.178,-9.693,0.001416,-0.001920,0.000526,32.7,83.996,1559177154.440624952
0.4329,0.0606,0.2220,-0.046,0.161,-9.689,0.001959,-0.000870,0.002044,32.7,83.996,1559177154.441118956
0.4329,0.0617,0.2234,-0.046,0.171,-9.712,0.000979,-0.001928,0.000780,32.7,83.983,1559177154.441609621
0.4318,0.0617,0.2208,-0.046,0.177,-9.668,-0.000233,-0.002219,0.002017,32.7,83.983,1559177154.442095995
0.4318,0.0629,0.2167,-0.058,0.179,-9.676,-0.000003,-0.001193,0.001191,32.7,83.983,1559177154.529823542
0.4318,0.0617,0.2208,-0.051,0.184,-9.719,0.001330,-0.001157,0.001872,32.7,83.983,1559177154.530323744
0.4372,0.0606,0.2232,-0.043,0.159,-9.687,0.000970,-0.000898,0.001631,32.7,83.983,1559177154.530812979
0.4318,0.0606,0.2180,-0.048,0.163,-9.680,0.000373,-0.001240,0.001639,32.7,83.996,1559177154.531301022
0.4350,0.0652,0.2192,-0.032,0.169,-9.690,0.000240,-0.002117,0.002844,32.7,83.996,1559177154.620829344
0.4350,0.0617,0.2206,-0.044,0.149,-9.670,0.000553,-0.000522,0.002171,32.7,83.996,1559177154.626268387
0.4307,0.0618,0.2194,-0.052,0.182,-9.697,0.001619,-0.000355,0.001686,32.7,83.983,1559177154.626764774
0.4339,0.0606,0.2220,-0.061,0.161,-9.693,0.000820,-0.002029,0.002497,32.7,83.983,1559177154.627254725
0.4339,0.0617,0.2179,-0.063,0.143,-9.667,0.001196,-0.001773,0.001950,32.7,83.996,1559177154.627740383
0.4361,0.0629,0.2219,-0.068,0.179,-9.716,0.001648,-0.000992,0.001009,32.7,83.983,1559177154.710598230
0.4329,0.0617,0.2221,-0.055,0.179,-9.690,0.000845,-0.001258,0.001897,32.7,83.983,1559177154.711099863
0.4328,0.0640,0.2221,-0.040,0.174,-9.692,0.000608,-0.000768,0.002401,32.7,83.996,1559177154.711590052
0.4339,0.0629,0.2220,-0.055,0.163,-9.698,0.001076,-0.000455,0.001337,32.7,83.996,1559177154.712076664
0.4329,0.0583,0.2193,-0.048,0.168,-9.693,-0.000048,-0.000793,0.001696,32.7,83.986,1559177154.800506115
0.4350,0.0617,0.2192,-0.034,0.184,-9.702,0.001242,-0.001994,0.003179,32.7,83.983,1559177154.801581860
0.4307,0.0606,0.2235,-0.055,0.169,-9.675,0.000656,-0.000873,0.002082,32.7,83.979,1559177154.802566051
0.4328,0.0617,0.2193,-0.052,0.181,-9.675,0.001424,-0.001100,0.002335,32.7,83.983,1559177154.803546906
0.4361,0.0617,0.2192,-0.052,0.189,-9.709,0.000782,-0.001288,0.001515,32.7,83.996,1559177154.804520845
0.4329,0.0606,0.2220,-0.059,0.161,-9.668,0.001076,-0.001508,0.000941,32.7,83.983,1559177154.891408443
0.4318,0.0617,0.2235,-0.056,0.156,-9.659,0.000856,-0.001749,0.001336,32.7,83.999,1559177154.892405033
0.4328,0.0629,0.2166,-0.065,0.155,-9.731,0.000535,-0.001716,0.001526,32.7,83.996,1559177154.893388510
0.4307,0.0618,0.2222,-0.071,0.186,-9.697,0.001418,-0.001823,0.001725,32.7,83.996,1559177154.894364119
0.4328,0.0629,0.2193,-0.047,0.196,-9.649,0.001273,-0.001717,0.002134,32.7,83.983,1559177154.981140852
0.4328,0.0629,0.2166,-0.038,0.173,-9.692,0.001912,-0.001433,0.003133,32.7,83.983,1559177154.982141495
0.4307,0.0606,0.2208,-0.052,0.184,-9.725,0.000838,-0.000329,0.000846,32.7,83.983,1559177154.983125210
0.4350,0.0606,0.2233,-0.036,0.176,-9.665,0.001175,-0.001575,0.001458,32.7,83.970,1559177154.984104633
0.4339,0.0606,0.2206,-0.047,0.175,-9.679,0.000404,-0.000702,0.002282,32.7,83.983,1559177154.985080242
0.4329,0.0617,0.2207,-0.046,0.189,-9.691,0.001193,-0.000825,0.001884,32.7,83.996,1559177155.070886850
0.4339,0.0606,0.2206,-0.067,0.157,-9.658,0.002268,0.000010,0.001734,32.7,83.996,1559177155.071887255
0.4339,0.0617,0.2206,-0.074,0.155,-9.711,-0.000169,-0.001748,0.002684,32.7,83.983,1559177155.072870016
0.4328,0.0629,0.2193,-0.036,0.170,-9.697,0.002043,-0.001348,0.001751,32.7,83.996,1559177155.073846817
0.4307,0.0606,0.2208,-0.061,0.181,-9.712,0.000616,-0.000387,0.000805,32.7,83.996,1559177155.161887884
0.4339,0.0617,0.2193,-0.053,0.189,-9.698,0.000891,-0.001506,0.000366,32.7,83.996,1559177155.162885427
0.4307,0.0618,0.2222,-0.064,0.179,-9.675,0.001462,-0.000435,0.001392,32.7,83.983,1559177155.163867950
0.4350,0.0617,0.2192,-0.033,0.190,-9.707,0.000328,-0.001333,0.001246,32.7,83.996,1559177155.164845467
0.4318,0.0618,0.2194,-0.049,0.186,-9.712,0.001132,0.000312,0.003068,32.7,83.996,1559177155.165869236
0.4307,0.0583,0.2208,-0.030,0.139,-9.688,-0.000014,-0.001151,0.001790,32.7,83.996,1559177155.251638174
0.4339,0.0629,0.2234,-0.045,0.174,-9.655,0.001224,-0.000553,0.003307,32.7,83.996,1559177155.252637863
0.4361,0.0617,0.2192,-0.051,0.167,-9.672,0.001240,-0.001440,0.001551,32.7,83.992,1559177155.253620863
0.4318,0.0617,0.2208,-0.030,0.168,-9.670,0.001677,-0.002379,0.002003,32.7,83.983,1559177155.254600048
0.4307,0.0606,0.2194,-0.033,0.173,-9.698,0.001204,-0.001842,0.001138,32.7,83.996,1559177155.342636585
0.4296,0.0606,0.2209,-0.051,0.174,-9.692,0.000497,-0.001633,0.002363,32.7,83.996,1559177155.343703032
0.4307,0.0606,0.2208,-0.040,0.172,-9.680,0.001776,-0.001682,0.002324,32.7,84.009,1559177155.344687700
0.4350,0.0606,0.2233,-0.042,0.185,-9.681,0.001266,-0.002291,0.001830,32.7,83.996,1559177155.345712423
0.4350,0.0629,0.2233,-0.047,0.176,-9.674,0.001695,0.000104,0.002495,32.7,83.983,1559177155.346693039
0.4307,0.0595,0.2208,-0.067,0.177,-9.686,0.000967,0.000363,0.002635,32.7,83.996,1559177155.432415724
0.4328,0.0640,0.2221,-0.054,0.192,-9.712,0.001492,-0.002354,0.002099,32.7,83.996,1559177155.433410168
0.4361,0.0606,0.2232,-0.061,0.171,-9.693,0.001290,-0.001666,0.001901,32.7,83.983,1559177155.434390306
0.4307,0.0618,0.2208,-0.042,0.170,-9.720,0.001343,-0.001346,0.001419,32.7,83.996,1559177155.435410261
0.4318,0.0606,0.2221,-0.051,0.170,-9.669,0.000693,-0.001021,0.001444,32.7,83.983,1559177155.522145271
0.4296,0.0640,0.2222,-0.036,0.147,-9.683,0.001395,-0.001272,0.002427,32.7,83.983,1559177155.523144960
0.4339,0.0606,0.2247,-0.046,0.182,-9.681,0.002263,-0.001169,0.002114,32.7,83.983,1559177155.524128914
0.4339,0.0629,0.2220,-0.048,0.158,-9.662,0.001186,-0.000509,0.001444,32.7,83.983,1559177155.525103807
0.4329,0.0617,0.2221,-0.044,0.155,-9.655,0.000600,-0.001348,0.000725,32.7,83.996,1559177155.526117325
0.4307,0.0629,0.2235,-0.038,0.197,-9.663,0.001648,-0.001514,0.001605,32.7,83.996,1559177155.611887693
0.4339,0.0629,0.2220,-0.062,0.160,-9.724,0.001073,-0.000912,0.001273,32.7,83.979,1559177155.612887383
0.4361,0.0594,0.2191,-0.044,0.170,-9.666,0.000993,-0.001553,0.001974,32.7,83.983,1559177155.613871336
0.4328,0.0640,0.2234,-0.043,0.164,-9.686,0.000436,-0.000560,0.001311,32.7,83.996,1559177155.614842176
0.4329,0.0617,0.2234,-0.038,0.155,-9.711,0.000412,-0.002542,0.002253,32.7,83.986,1559177155.702896357
0.4318,0.0572,0.2221,-0.042,0.166,-9.676,0.000822,0.000004,0.001971,32.7,83.983,1559177155.703895330
0.4329,0.0606,0.2220,-0.057,0.159,-9.666,0.000975,-0.001120,0.002492,32.7,83.970,1559177155.704877853
0.4307,0.0583,0.2208,-0.073,0.164,-9.666,0.001285,-0.000881,0.001498,32.7,83.996,1559177155.705907822
0.4339,0.0629,0.2206,-0.059,0.161,-9.681,0.000402,-0.002491,0.001844,32.7,83.996,1559177155.706886292
0.4318,0.0629,0.2221,-0.037,0.175,-9.692,0.001287,-0.001893,0.001539,32.7,83.996,1559177155.792638540
0.4318,0.0618,0.2194,-0.042,0.191,-9.692,0.000485,-0.000955,0.002098,32.7,83.983,1559177155.793634176
0.4318,0.0606,0.2207,-0.047,0.189,-9.665,0.000153,-0.001232,0.000938,32.7,83.983,1559177155.794613361
0.4318,0.0617,0.2208,-0.042,0.177,-9.654,0.001986,0.000863,0.001910,32.7,83.983,1559177155.795638800
0.4318,0.0617,0.2221,-0.064,0.164,-9.657,0.001940,-0.001928,0.000752,32.7,83.996,1559177155.883644581
0.4350,0.0629,0.2219,-0.030,0.181,-9.709,0.000451,-0.001774,0.001007,32.7,83.996,1559177155.884643316
0.4329,0.0606,0.2234,-0.043,0.186,-9.679,0.001298,-0.000510,0.001864,32.7,83.983,1559177155.885679960
0.4328,0.0629,0.2221,-0.042,0.167,-9.690,0.001222,-0.001297,0.001139,32.7,83.996,1559177155.886667728
0.4307,0.0606,0.2208,-0.066,0.150,-9.703,0.000882,-0.002700,0.001481,32.7,83.996,1559177155.887646914
0.4318,0.0618,0.2194,-0.029,0.165,-9.698,0.000237,-0.000884,0.001922,32.7,83.983,1559177155.973382950
0.4350,0.0617,0.2219,-0.047,0.182,-9.689,0.000996,-0.002072,0.001189,32.7,83.983,1559177155.974380255
0.4329,0.0617,0.2221,-0.062,0.141,-9.650,0.000965,-0.000970,0.000580,32.7,83.996,1559177155.975404263
0.4318,0.0595,0.2221,-0.048,0.152,-9.682,0.001526,-0.001413,0.001033,32.7,83.996,1559177155.976389408
0.4318,0.0629,0.2248,-0.061,0.167,-9.685,0.001129,-0.001893,0.001859,32.7,83.996,1559177156.063137531
0.4307,0.0606,0.2208,-0.036,0.169,-9.727,0.001627,0.000302,0.001626,32.7,83.983,1559177156.064139843
0.4318,0.0606,0.2207,-0.042,0.160,-9.648,0.001544,-0.000769,0.001067,32.7,83.996,1559177156.065124035
0.4329,0.0617,0.2248,-0.061,0.180,-9.711,0.001635,-0.001317,0.001889,32.7,83.983,1559177156.066151142
0.4318,0.0629,0.2208,-0.056,0.179,-9.677,0.000312,-0.000390,0.000952,32.7,83.983,1559177156.067132950
0.4329,0.0617,0.2234,-0.036,0.171,-9.686,0.001123,-0.000575,0.001764,32.7,83.996,1559177156.152919769
0.4350,0.0606,0.2233,-0.047,0.180,-9.683,0.000616,-0.000667,0.000500,32.7,83.996,1559177156.153919935
0.4339,0.0617,0.2234,-0.057,0.164,-9.693,0.000916,0.000196,0.002044,32.7,83.983,1559177156.154902220
0.4296,0.0583,0.2222,-0.059,0.168,-9.657,0.000497,-0.001553,0.002469,32.7,83.996,1559177156.155926943
0.4350,0.0629,0.2233,-0.060,0.176,-9.687,0.003209,-0.000577,0.002676,32.7,83.992,1559177156.244016409
0.4350,0.0617,0.2219,-0.051,0.193,-9.676,0.000749,-0.002041,0.000373,32.7,83.983,1559177156.245072603
0.4307,0.0618,0.2235,-0.039,0.177,-9.668,0.001001,-0.001800,0.002221,32.7,83.983,1559177156.246119738
0.4339,0.0606,0.2206,-0.073,0.154,-9.699,0.001182,-0.000768,0.000696,32.7,83.983,1559177156.247138262
0.4296,0.0583,0.2222,-0.036,0.166,-9.711,0.001471,-0.000898,0.000784,32.7,83.996,1559177156.248113155
0.4307,0.0629,0.2222,-0.047,0.161,-9.703,0.000359,-0.001237,0.002309,32.7,83.983,1559177156.333647728
0.4307,0.0629,0.2222,-0.048,0.172,-9.673,0.000533,-0.000729,0.001684,32.7,83.996,1559177156.334654331
0.4339,0.0629,0.2220,-0.061,0.188,-9.694,0.000780,-0.001787,0.002340,32.7,83.983,1559177156.335689783
0.4318,0.0617,0.2208,-0.059,0.174,-9.681,0.001346,-0.001008,0.002629,32.7,83.996,1559177156.336672306
0.4350,0.0617,0.2206,-0.058,0.174,-9.650,0.000578,-0.001601,0.000699,32.7,83.983,1559177156.424638271
0.4350,0.0629,0.2206,-0.047,0.169,-9.686,0.000899,-0.000761,0.001629,32.7,83.983,1559177156.425686121
0.4329,0.0595,0.2193,-0.038,0.174,-9.698,0.001178,-0.000057,0.001298,32.7,83.983,1559177156.426680565
0.4328,0.0617,0.2193,-0.055,0.160,-9.690,0.001739,0.000199,0.001587,32.7,83.983,1559177156.427659512
0.4350,0.0617,0.2206,-0.027,0.186,-9.664,0.000765,-0.001422,0.001604,32.7,83.996,1559177156.428632975
0.4328,0.0640,0.2193,-0.057,0.204,-9.693,0.000910,-0.002062,0.001591,32.7,83.983,1559177156.514438152
0.4307,0.0618,0.2194,-0.046,0.184,-9.696,0.001528,-0.001133,0.001860,32.7,83.983,1559177156.515552998
0.4329,0.0606,0.2193,-0.039,0.178,-9.694,0.001628,-0.001861,0.001525,32.7,83.983,1559177156.516562939
0.4329,0.0606,0.2180,-0.038,0.173,-9.687,0.000877,-0.002374,0.002429,32.7,83.996,1559177156.517578602
0.4329,0.0617,0.2221,-0.054,0.184,-9.683,0.001269,-0.001827,0.001153,32.7,83.996,1559177156.604161263
0.4339,0.0617,0.2220,-0.048,0.192,-9.671,0.001001,-0.001322,0.001632,32.7,83.983,1559177156.605180740
0.4318,0.0618,0.2180,-0.051,0.178,-9.674,0.000934,-0.001299,0.001378,32.7,83.983,1559177156.606254339
0.4339,0.0606,0.2220,-0.058,0.165,-9.686,0.000460,-0.001968,0.002126,32.7,83.996,1559177156.607307673
0.4329,0.0595,0.2220,-0.042,0.169,-9.667,0.001109,-0.000503,0.002404,32.7,83.983,1559177156.608324766
0.4318,0.0595,0.2194,-0.050,0.162,-9.712,0.001057,-0.000792,0.001113,32.7,83.983,1559177156.693917274
0.4318,0.0617,0.2221,-0.068,0.148,-9.666,0.000689,-0.000718,0.001203,32.7,83.999,1559177156.694937468
0.4318,0.0606,0.2221,-0.043,0.173,-9.709,0.001298,-0.000392,0.000407,32.7,83.996,1559177156.696001053
0.4339,0.0617,0.2234,-0.054,0.161,-9.656,0.001686,-0.001166,0.001977,32.7,84.009,1559177156.697027206
0.4328,0.0617,0.2193,-0.035,0.185,-9.696,0.000975,-0.002169,0.002295,32.7,83.992,1559177156.784915686
0.4350,0.0617,0.2206,-0.058,0.186,-9.694,0.001168,-0.000646,0.001792,32.7,83.996,1559177156.785971642
0.4329,0.0595,0.2193,-0.076,0.160,-9.706,0.000898,-0.001873,0.001742,32.7,83.996,1559177156.787017345
0.4339,0.0640,0.2220,-0.058,0.191,-9.650,0.001336,-0.001200,0.001706,32.7,83.983,1559177156.788042307
0.4350,0.0595,0.2246,-0.056,0.187,-9.705,0.001399,-0.000687,0.001178,32.7,83.996,1559177156.789059401
0.4307,0.0663,0.2236,-0.056,0.198,-9.688,0.001181,-0.002489,0.002349,32.7,83.996,1559177156.874741554
0.4339,0.0617,0.2247,-0.060,0.168,-9.684,0.001137,-0.000521,0.001978,32.7,83.996,1559177156.875901937
0.4350,0.0606,0.2192,-0.047,0.176,-9.683,0.002088,-0.001440,0.001685,32.7,83.996,1559177156.876906157
0.4318,0.0629,0.2194,-0.047,0.175,-9.696,0.000344,-0.001197,0.002138,32.7,83.996,1559177156.877917767
0.4307,0.0652,0.2195,-0.055,0.165,-9.734,0.001469,-0.000501,0.002272,32.7,83.996,1559177156.965663433
0.4339,0.0617,0.2206,-0.062,0.171,-9.723,0.000760,-0.000981,0.001619,32.7,83.983,1559177156.966679096
0.4307,0.0629,0.2222,-0.059,0.174,-9.695,0.000515,-0.001900,0.002509,32.7,83.996,1559177156.967717648
0.4339,0.0640,0.2234,-0.044,0.167,-9.725,0.000349,-0.001597,0.002070,32.7,83.983,1559177156.968742371
0.4318,0.0595,0.2221,-0.038,0.176,-9.690,0.001077,-0.001044,0.000552,32.7,83.983,1559177156.969753027
0.4307,0.0606,0.2235,-0.029,0.150,-9.698,0.000786,-0.001290,0.002048,32.7,83.996,1559177157.055419207
0.4350,0.0606,0.2247,-0.052,0.165,-9.694,0.000605,-0.001984,0.001408,32.7,83.983,1559177157.056430578
0.4339,0.0606,0.2233,-0.058,0.151,-9.691,0.001876,-0.002415,0.001872,32.7,83.996,1559177157.057446718
0.4318,0.0617,0.2208,-0.047,0.173,-9.696,0.001058,-0.000778,0.001312,32.7,83.996,1559177157.058480263
0.4318,0.0606,0.2221,-0.047,0.172,-9.682,0.000962,-0.001094,0.002109,32.7,83.983,1559177157.145184994
0.4350,0.0595,0.2206,-0.032,0.171,-9.720,0.001521,-0.002092,0.002325,32.7,83.996,1559177157.146283865
0.4296,0.0640,0.2195,-0.060,0.167,-9.677,0.000834,-0.002027,0.002720,32.7,83.996,1559177157.147322416
0.4339,0.0606,0.2206,-0.047,0.192,-9.666,0.000811,-0.002445,0.002293,32.7,83.992,1559177157.148345232
0.4329,0.0617,0.2207,-0.047,0.175,-9.681,0.001632,-0.002026,0.002307,32.7,83.992,1559177157.149359226
0.4307,0.0595,0.2194,-0.043,0.167,-9.731,0.000817,-0.001570,0.002733,32.7,83.983,1559177157.234917164
0.4350,0.0606,0.2219,-0.049,0.188,-9.734,0.000135,-0.000684,0.001234,32.7,83.996,1559177157.235984802
0.4339,0.0640,0.2220,-0.041,0.182,-9.709,0.000702,-0.000647,0.001699,32.7,83.983,1559177157.237028837
0.4318,0.0606,0.2221,-0.044,0.179,-9.688,0.000178,-0.000316,0.002709,32.7,83.983,1559177157.238043547
0.4329,0.0606,0.2180,-0.053,0.171,-9.707,-0.000014,-0.001652,0.002722,32.7,83.996,1559177157.325913429
0.4307,0.0618,0.2222,-0.049,0.158,-9.659,0.001101,-0.002874,0.001666,32.7,83.996,1559177157.326934099
0.4350,0.0629,0.2192,-0.047,0.165,-9.707,0.002262,-0.000639,0.001157,32.7,83.983,1559177157.327953339
0.4328,0.0617,0.2193,-0.050,0.153,-9.687,0.000244,-0.001299,0.002855,32.7,83.996,1559177157.328973055
0.4361,0.0606,0.2232,-0.031,0.169,-9.675,0.000995,-0.000484,0.000681,32.7,83.996,1559177157.330014706
0.4329,0.0617,0.2234,-0.063,0.199,-9.686,0.001671,-0.001318,0.001995,32.7,83.996,1559177157.415685177
0.4318,0.0606,0.2235,-0.060,0.155,-9.691,0.000587,-0.000770,0.001671,32.7,83.996,1559177157.416697502
0.4329,0.0595,0.2234,-0.039,0.175,-9.680,0.000950,-0.001435,0.001347,32.7,83.996,1559177157.417711258
0.4307,0.0618,0.2194,-0.044,0.180,-9.702,0.000640,-0.000767,0.002045,32.7,83.983,1559177157.418738127
0.4307,0.0652,0.2236,-0.046,0.173,-9.672,0.000359,-0.000856,0.000979,32.7,83.983,1559177157.506664753
0.4329,0.0606,0.2234,-0.044,0.168,-9.678,0.000424,-0.001411,0.001697,32.7,83.986,1559177157.507706404
0.4318,0.0606,0.2167,-0.046,0.165,-9.686,0.001291,-0.000508,0.001312,32.7,83.983,1559177157.508723736
0.4318,0.0617,0.2235,-0.048,0.150,-9.702,0.001174,0.000585,0.001858,32.7,83.983,1559177157.509740829
0.4350,0.0617,0.2233,-0.086,0.166,-9.684,0.000063,-0.001707,0.002297,32.7,83.996,1559177157.510756969
0.4307,0.0629,0.2208,-0.044,0.197,-9.693,0.001443,-0.002593,0.002013,32.7,83.983,1559177157.596430540
0.4318,0.0595,0.2194,-0.053,0.175,-9.694,0.000717,-0.001296,0.001864,32.7,83.996,1559177157.597446918
0.4350,0.0629,0.2206,-0.050,0.167,-9.713,0.001562,-0.000999,0.000833,32.7,83.983,1559177157.598462343
0.4318,0.0606,0.2207,-0.064,0.168,-9.690,0.001350,-0.001597,0.002045,32.7,83.983,1559177157.599500656
0.4318,0.0618,0.2194,-0.050,0.195,-9.710,0.000722,-0.000289,0.001459,32.7,83.996,1559177157.686215639
0.4350,0.0629,0.2233,-0.061,0.197,-9.679,0.000621,-0.000152,0.002430,32.7,83.996,1559177157.687284470
0.4329,0.0617,0.2207,-0.061,0.175,-9.693,0.000988,-0.000256,0.001964,32.7,83.996,1559177157.688294411
0.4361,0.0640,0.2219,-0.046,0.186,-9.678,0.000786,-0.000818,0.001910,32.7,84.009,1559177157.689315319
0.4307,0.0618,0.2222,-0.068,0.178,-9.720,0.000503,-0.002096,0.001417,32.7,83.996,1559177157.690370798
0.4307,0.0629,0.2208,-0.063,0.164,-9.681,0.000385,-0.001124,0.001149,32.7,83.983,1559177157.776051044
0.4350,0.0629,0.2219,-0.050,0.173,-9.669,0.000143,-0.000820,0.001353,32.7,83.996,1559177157.777186155
0.4361,0.0629,0.2205,-0.062,0.184,-9.717,0.001542,-0.001099,0.002178,32.7,83.983,1559177157.778218508
0.4296,0.0618,0.2209,-0.039,0.143,-9.704,0.001594,-0.003033,0.001886,32.7,83.983,1559177157.779256105
0.4350,0.0629,0.2206,-0.054,0.180,-9.700,0.002161,-0.001574,0.001286,32.7,83.986,1559177157.866930485
0.4350,0.0617,0.2219,-0.047,0.151,-9.694,0.000637,0.000469,0.001403,32.7,83.983,1559177157.867964029
0.4286,0.0606,0.2223,-0.040,0.172,-9.692,0.000544,-0.001799,0.001156,32.7,83.996,1559177157.868980408
0.4328,0.0629,0.2207,-0.035,0.148,-9.665,0.000652,-0.001658,0.000484,32.7,83.983,1559177157.870003462
0.4350,0.0617,0.2219,-0.047,0.169,-9.650,0.000312,-0.001013,0.001657,32.7,83.983,1559177157.871034622
0.4350,0.0629,0.2219,-0.070,0.180,-9.680,0.000333,-0.002050,0.002037,32.7,83.996,1559177157.956692219
0.4339,0.0640,0.2207,-0.042,0.177,-9.701,0.001163,-0.002021,0.000798,32.7,83.996,1559177157.957714319
0.4318,0.0617,0.2221,-0.060,0.182,-9.684,0.000491,-0.000584,0.001711,32.7,83.983,1559177157.958735228
0.4318,0.0606,0.2221,-0.038,0.154,-9.706,0.001042,-0.000874,0.002154,32.7,83.996,1559177157.959761381
0.4339,0.0617,0.2193,-0.053,0.190,-9.677,0.001781,-0.002701,0.001047,32.7,83.983,1559177158.047664165
0.4329,0.0617,0.2207,-0.048,0.176,-9.689,0.001030,-0.000657,0.001392,32.7,83.983,1559177158.048682690
0.4329,0.0617,0.2207,-0.036,0.155,-9.691,0.001212,-0.000998,0.002349,32.7,83.983,1559177158.049701929
0.4372,0.0583,0.2218,-0.042,0.158,-9.685,0.001363,-0.001312,0.000407,32.7,83.983,1559177158.050727129
0.4361,0.0617,0.2219,-0.065,0.195,-9.691,0.002211,-0.000455,0.001180,32.7,83.996,1559177158.051763535
0.4318,0.0629,0.2208,-0.040,0.164,-9.700,0.001561,-0.000607,0.002296,32.7,83.983,1559177158.137412548
0.4339,0.0595,0.2206,-0.042,0.184,-9.670,0.001826,-0.001204,0.001245,32.7,83.983,1559177158.138453722
0.4339,0.0606,0.2179,-0.063,0.170,-9.680,0.001556,-0.000736,0.001738,32.7,83.983,1559177158.139616966
0.4329,0.0617,0.2221,-0.054,0.186,-9.684,0.000746,-0.000606,0.001065,32.7,83.996,1559177158.140638351
0.4318,0.0617,0.2208,-0.062,0.184,-9.689,0.002241,-0.000641,0.001338,32.7,83.996,1559177158.227189779
0.4328,0.0629,0.2221,-0.056,0.159,-9.688,0.000432,-0.000850,0.002068,32.7,83.996,1559177158.228207350
0.4318,0.0640,0.2221,-0.035,0.192,-9.693,0.000985,-0.000352,0.001339,32.7,83.996,1559177158.229226828
0.4339,0.0606,0.2233,-0.049,0.165,-9.668,0.000709,-0.002135,0.002061,32.7,83.983,1559177158.230250835
0.4350,0.0617,0.2219,-0.055,0.158,-9.692,0.001384,-0.000440,0.001525,32.7,83.970,1559177158.231288910
0.4329,0.0606,0.2180,-0.064,0.179,-9.663,0.001772,-0.001874,0.001272,32.7,83.983,1559177158.316914558
0.4339,0.0629,0.2220,-0.050,0.163,-9.684,0.000845,-0.001073,0.001769,32.7,83.983,1559177158.317932606
0.4318,0.0629,0.2235,-0.063,0.173,-9.661,0.000284,-0.001747,0.001671,32.7,83.996,1559177158.318965912
0.4329,0.0617,0.2207,-0.056,0.193,-9.683,0.000473,-0.000357,0.001657,32.7,83.996,1559177158.319991350
0.4350,0.0617,0.2219,-0.041,0.170,-9.677,0.000734,-0.001344,0.001018,32.7,83.996,1559177158.321001291
0.4350,0.0617,0.2179,-0.053,0.180,-9.714,0.001387,-0.000886,0.001471,32.7,83.996,1559177158.407970428
0.4307,0.0629,0.2222,-0.063,0.174,-9.661,0.001881,-0.001571,0.001176,32.7,83.996,1559177158.408984661
0.4339,0.0583,0.2192,-0.062,0.165,-9.681,0.001469,-0.000377,0.001726,32.7,84.009,1559177158.410022736
0.4339,0.0606,0.2193,-0.041,0.172,-9.677,0.000538,0.000105,0.002266,32.7,83.983,1559177158.411056042
0.4318,0.0640,0.2221,-0.031,0.143,-9.700,0.001005,-0.001892,0.002803,32.7,83.983,1559177158.498915434
0.4339,0.0617,0.2220,-0.069,0.161,-9.694,0.000625,-0.001034,0.002366,32.7,83.996,1559177158.499946833
0.4329,0.0617,0.2221,-0.040,0.161,-9.696,0.001720,-0.001277,0.002111,32.7,83.983,1559177158.500961304
0.4329,0.0617,0.2207,-0.038,0.197,-9.673,0.000863,-0.001305,0.001672,32.7,83.983,1559177158.502013445
0.4318,0.0629,0.2235,-0.043,0.195,-9.683,0.001180,-0.001244,0.000913,32.7,83.983,1559177158.503042459
0.4329,0.0617,0.2207,-0.051,0.171,-9.679,0.000785,-0.000735,0.002215,32.7,83.996,1559177158.588682175
0.4318,0.0595,0.2235,-0.042,0.182,-9.648,0.000966,-0.001469,0.001949,32.7,83.996,1559177158.589689493
0.4329,0.0606,0.2220,-0.052,0.163,-9.679,0.000986,-0.001205,0.001498,32.7,83.996,1559177158.590704918
0.4339,0.0595,0.2220,-0.057,0.154,-9.671,0.000220,-0.000666,0.002283,32.7,83.996,1559177158.591733217
0.4339,0.0617,0.2220,-0.058,0.168,-9.681,0.001054,0.000109,0.002590,32.7,83.996,1559177158.678413630
0.4339,0.0617,0.2220,-0.062,0.174,-9.698,0.000575,0.000243,0.001976,32.7,83.983,1559177158.679463863
0.4318,0.0629,0.2221,-0.025,0.159,-9.693,0.000950,-0.001141,0.002552,32.7,83.996,1559177158.680476427
0.4329,0.0606,0.2220,-0.066,0.157,-9.698,0.001548,-0.001456,0.001226,32.7,83.996,1559177158.681493998
0.4318,0.0617,0.2221,-0.052,0.173,-9.664,0.001641,-0.000291,0.000939,32.7,83.983,1559177158.682518959
0.4339,0.0629,0.2220,-0.019,0.186,-9.677,0.000500,-0.000766,0.002748,32.7,83.996,1559177158.768163443
0.4307,0.0640,0.2208,-0.043,0.158,-9.707,0.001240,-0.001320,0.001698,32.7,83.983,1559177158.769174576
0.4350,0.0617,0.2219,-0.051,0.178,-9.668,0.000324,-0.001597,0.002283,32.7,83.983,1559177158.770214081
0.4350,0.0629,0.2206,-0.041,0.180,-9.719,0.000471,0.000079,0.001775,32.7,83.996,1559177158.771259546
0.4339,0.0617,0.2206,-0.047,0.145,-9.678,0.001630,-0.000632,0.002363,32.7,83.983,1559177158.859185219
0.4329,0.0617,0.2221,-0.044,0.169,-9.680,0.000064,-0.002016,0.001738,32.7,83.996,1559177158.860197067
0.4361,0.0606,0.2205,-0.050,0.164,-9.670,0.001845,-0.000671,0.001475,32.7,83.996,1559177158.861211061
0.4329,0.0606,0.2220,-0.053,0.171,-9.695,0.000390,-0.001561,0.000941,32.7,83.983,1559177158.862229109
0.4329,0.0606,0.2193,-0.063,0.185,-9.692,0.001248,-0.001528,0.002749,32.7,83.996,1559177158.863264084
0.4318,0.0617,0.2208,-0.055,0.181,-9.708,0.001222,-0.001698,0.001557,32.7,83.996,1559177158.948916674
0.4307,0.0606,0.2222,-0.045,0.172,-9.701,0.002365,-0.002558,0.001934,32.7,83.983,1559177158.949937820
0.4328,0.0640,0.2193,-0.045,0.180,-9.660,0.000999,-0.001561,0.000808,32.7,83.983,1559177158.950965881
0.4350,0.0617,0.2206,-0.064,0.162,-9.690,0.000986,-0.000841,0.000970,32.7,83.983,1559177158.951985121
0.4307,0.0606,0.2222,-0.049,0.168,-9.676,0.000277,-0.002644,0.000765,32.7,83.983,1559177159.039909124
0.4339,0.0629,0.2206,-0.045,0.157,-9.681,0.000009,-0.000963,0.001738,32.7,83.996,1559177159.040923834
0.4371,0.0640,0.2205,-0.047,0.188,-9.672,0.001225,-0.000077,0.002283,32.7,83.983,1559177159.041953087
0.4329,0.0606,0.2193,-0.038,0.172,-9.668,0.000618,-0.001384,0.001385,32.7,83.996,1559177159.043000460
0.4350,0.0606,0.2219,-0.032,0.169,-9.694,0.000805,-0.001447,0.001405,32.7,83.996,1559177159.044024229
0.4318,0.0583,0.2221,-0.039,0.170,-9.690,0.000085,-0.000926,0.001152,32.7,83.983,1559177159.129695892
0.4328,0.0629,0.2207,-0.062,0.169,-9.665,0.000157,-0.002217,0.001245,32.7,83.996,1559177159.130735159
0.4307,0.0606,0.2222,-0.060,0.161,-9.681,0.001626,-0.001459,0.002110,32.7,83.996,1559177159.131768703
0.4339,0.0606,0.2206,-0.084,0.169,-9.731,0.002559,-0.001676,0.001246,32.7,83.983,1559177159.132787466
0.4329,0.0606,0.2234,-0.028,0.172,-9.681,0.000328,-0.001065,0.001884,32.7,83.983,1559177159.219429731
0.4339,0.0629,0.2234,-0.064,0.179,-9.708,0.001172,-0.001215,0.001685,32.7,83.983,1559177159.220442533
0.4329,0.0606,0.2207,-0.079,0.161,-9.678,0.000958,-0.001952,0.002276,32.7,83.983,1559177159.221462965
0.4318,0.0595,0.2166,-0.050,0.190,-9.695,0.000173,-0.000482,0.001664,32.7,83.983,1559177159.222481251
0.4350,0.0606,0.2206,-0.064,0.170,-9.672,0.001689,-0.002436,0.000931,32.7,83.996,1559177159.223504066
0.4307,0.0606,0.2222,-0.013,0.175,-9.678,0.001357,-0.003584,0.001509,32.7,83.996,1559177159.309303761
0.4318,0.0595,0.2194,-0.050,0.169,-9.704,0.000528,-0.001101,0.002390,32.7,83.983,1559177159.310435295
0.4329,0.0595,0.2207,-0.053,0.170,-9.704,0.001182,-0.000894,0.001925,32.7,83.996,1559177159.311538458
0.4361,0.0594,0.2246,-0.056,0.171,-9.673,0.001461,-0.001145,0.002290,32.7,83.996,1559177159.312533855
0.4296,0.0629,0.2236,-0.038,0.167,-9.721,0.000522,-0.002013,0.001166,32.7,83.983,1559177159.400180817
0.4318,0.0617,0.2221,-0.049,0.168,-9.687,0.000634,-0.001558,0.001046,32.7,83.983,1559177159.401205778
0.4350,0.0629,0.2206,-0.061,0.176,-9.674,0.000437,-0.001383,0.001765,32.7,83.983,1559177159.402250051
0.4307,0.0595,0.2222,-0.062,0.157,-9.675,-0.000088,-0.001118,0.002468,32.7,83.996,1559177159.403303623
0.4339,0.0640,0.2207,-0.033,0.186,-9.661,-0.000107,-0.001086,0.002253,32.7,83.996,1559177159.404323339
0.4361,0.0617,0.2205,-0.054,0.177,-9.680,0.001501,-0.001767,0.001986,32.7,84.009,1559177159.489917755
0.4307,0.0629,0.2195,-0.087,0.175,-9.699,0.001441,-0.001562,0.002110,32.7,83.983,1559177159.490952253
0.4318,0.0629,0.2221,-0.054,0.156,-9.671,0.001247,-0.001354,0.001504,32.7,83.996,1559177159.491971731
0.4339,0.0617,0.2206,-0.044,0.178,-9.687,0.001429,-0.001209,0.001482,32.7,83.996,1559177159.492986679
0.4296,0.0618,0.2236,-0.034,0.168,-9.679,0.002289,-0.000314,0.001719,32.7,83.983,1559177159.580916405
0.4339,0.0606,0.2220,-0.058,0.157,-9.686,0.001037,-0.001466,0.002563,32.7,83.996,1559177159.581942320
0.4350,0.0617,0.2219,-0.046,0.187,-9.686,0.000884,-0.000793,0.001060,32.7,83.986,1559177159.582976818
0.4307,0.0629,0.2235,-0.026,0.160,-9.709,0.001345,-0.001615,0.001139,32.7,83.983,1559177159.584001541
0.4339,0.0617,0.2206,-0.046,0.148,-9.680,0.001035,-0.001512,0.002872,32.7,83.986,1559177159.585015297
0.4329,0.0595,0.2248,-0.049,0.177,-9.723,0.000585,-0.002226,0.002125,32.7,83.996,1559177159.670698166
0.4318,0.0618,0.2180,-0.061,0.190,-9.720,0.000162,-0.001320,0.002111,32.7,83.983,1559177159.676106930
0.4328,0.0629,0.2193,-0.056,0.139,-9.660,0.000851,-0.001361,0.002789,32.7,83.996,1559177159.677146673
0.4328,0.0629,0.2221,-0.051,0.177,-9.721,0.001629,-0.000631,0.002403,32.7,83.996,1559177159.678164005
0.4329,0.0617,0.2207,-0.066,0.167,-9.731,0.001014,-0.001001,0.002165,32.7,83.983,1559177159.760426998
0.4318,0.0617,0.2221,-0.059,0.167,-9.679,0.002434,-0.000197,0.001752,32.7,83.996,1559177159.761439562
0.4361,0.0617,0.2205,-0.058,0.172,-9.690,0.001350,0.000582,0.002080,32.7,83.996,1559177159.762486458
0.4318,0.0606,0.2180,-0.060,0.164,-9.683,0.000526,-0.001412,0.000784,32.7,83.996,1559177159.763525486
0.4339,0.0606,0.2206,-0.029,0.181,-9.699,0.001685,-0.001255,0.001612,32.7,83.983,1559177159.764540672
0.4350,0.0606,0.2178,-0.032,0.176,-9.676,0.000526,-0.000296,0.001887,32.7,83.996,1559177159.850226641
0.4307,0.0618,0.2208,-0.058,0.166,-9.717,0.000605,-0.000384,0.001486,32.7,83.983,1559177159.851272106
0.4339,0.0606,0.2206,-0.059,0.159,-9.691,0.001043,-0.000793,0.000980,32.7,83.996,1559177159.852270126
0.4318,0.0629,0.2194,-0.053,0.181,-9.687,0.000967,-0.000845,0.001432,32.7,83.983,1559177159.853290558
0.4318,0.0617,0.2208,-0.054,0.181,-9.692,0.000530,-0.001274,0.002149,32.7,83.996,1559177159.941163778
0.4318,0.0629,0.2221,-0.026,0.173,-9.670,0.000562,0.000453,0.000779,32.7,83.996,1559177159.942180634
0.4340,0.0572,0.2192,-0.027,0.177,-9.693,0.001289,-0.002159,0.001512,32.7,83.983,1559177159.943224192
0.4339,0.0606,0.2220,-0.056,0.198,-9.689,0.001715,-0.002378,0.001711,32.7,83.983,1559177159.944243431
0.4350,0.0606,0.2219,-0.068,0.169,-9.710,0.001875,-0.001502,0.002907,32.7,83.983,1559177159.945340395
0.4350,0.0606,0.2192,-0.050,0.165,-9.692,0.001122,-0.000312,0.001891,32.7,83.983,1559177160.030917883
0.4307,0.0618,0.2249,-0.046,0.162,-9.671,0.000912,-0.001607,0.001245,32.7,83.983,1559177160.031943798
0.4328,0.0652,0.2194,-0.049,0.170,-9.673,0.001491,-0.001105,0.002277,32.7,83.996,1559177160.032955885
0.4339,0.0640,0.2220,-0.032,0.156,-9.672,0.001067,-0.000532,0.001086,32.7,83.996,1559177160.033989429
0.4318,0.0617,0.2221,-0.046,0.173,-9.686,0.000429,-0.000730,0.001883,32.7,84.009,1559177160.121931314
0.4318,0.0629,0.2208,-0.037,0.169,-9.669,0.002012,-0.001553,0.001123,32.7,83.983,1559177160.122966290
0.4318,0.0617,0.2208,-0.063,0.167,-9.689,0.000882,-0.001165,0.001751,32.7,83.996,1559177160.123989582
0.4307,0.0595,0.2167,-0.054,0.155,-9.689,0.001244,-0.001532,0.002003,32.7,83.983,1559177160.125043392
0.4317,0.0686,0.2194,-0.050,0.171,-9.689,0.001474,-0.001220,0.001348,32.7,83.983,1559177160.126104116
0.4329,0.0617,0.2221,-0.046,0.158,-9.713,0.000576,-0.000837,0.001300,32.7,83.996,1559177160.211665392
0.4329,0.0606,0.2207,-0.069,0.194,-9.681,0.001550,-0.001995,0.001379,32.7,83.983,1559177160.212682247
0.4329,0.0606,0.2234,-0.058,0.180,-9.708,0.002080,-0.001482,0.001260,32.7,83.996,1559177160.213696957
0.4339,0.0617,0.2220,-0.067,0.170,-9.693,0.000428,-0.001799,0.001538,32.7,83.983,1559177160.214717865
0.4329,0.0595,0.2207,-0.074,0.163,-9.684,0.000210,-0.000744,0.002509,32.7,83.996,1559177160.302663088
0.4329,0.0617,0.2221,-0.043,0.181,-9.692,0.001575,-0.001659,0.001977,32.7,83.983,1559177160.303712130
0.4329,0.0629,0.2234,-0.048,0.165,-9.692,0.001322,-0.001067,-0.000132,32.7,83.983,1559177160.304727554
0.4328,0.0629,0.2193,-0.036,0.167,-9.685,0.001415,-0.001295,0.000829,32.7,83.983,1559177160.305791855
0.4350,0.0606,0.2260,-0.068,0.166,-9.709,0.000889,-0.000066,0.002113,32.7,83.996,1559177160.306843042
0.4350,0.0606,0.2192,-0.046,0.203,-9.705,0.001556,-0.001833,0.001886,32.7,83.983,1559177160.391164541
0.4318,0.0617,0.2208,-0.040,0.174,-9.698,0.000732,-0.002323,0.002613,32.7,83.996,1559177160.392178774
0.4328,0.0629,0.2221,-0.055,0.173,-9.680,0.000894,-0.001232,0.001565,32.7,83.992,1559177160.393194199
0.4350,0.0629,0.2206,-0.049,0.174,-9.664,0.001390,-0.001026,0.001363,32.7,83.970,1559177160.394238472
0.4318,0.0606,0.2207,-0.051,0.187,-9.702,0.000881,-0.001592,0.002695,32.7,83.983,1559177160.482193232
0.4318,0.0606,0.2235,-0.041,0.179,-9.690,0.002113,-0.001290,0.002549,32.7,83.996,1559177160.483238935
0.4307,0.0629,0.2222,-0.057,0.171,-9.697,0.001162,-0.001466,0.002532,32.7,83.983,1559177160.484255552
0.4329,0.0606,0.2193,-0.050,0.170,-9.687,-0.000208,-0.001354,0.001724,32.7,83.996,1559177160.485324621
0.4329,0.0595,0.2207,-0.039,0.154,-9.684,0.000562,-0.002134,0.000966,32.7,83.996,1559177160.486351490
0.4350,0.0617,0.2192,-0.065,0.173,-9.682,-0.000001,-0.000056,0.002057,32.7,83.992,1559177160.571910381
0.4318,0.0617,0.2208,-0.050,0.171,-9.655,0.000256,-0.001296,0.002285,32.7,83.983,1559177160.572922707
0.4318,0.0652,0.2208,-0.055,0.161,-9.696,0.000608,-0.001059,0.002080,32.7,83.983,1559177160.573935270
0.4329,0.0595,0.2220,-0.040,0.155,-9.693,0.000198,-0.000982,0.000604,32.7,83.996,1559177160.574965954
0.4318,0.0606,0.2194,-0.039,0.183,-9.646,0.000520,-0.002819,0.001977,32.7,83.996,1559177160.662982464
0.4329,0.0617,0.2207,-0.035,0.171,-9.691,0.000725,-0.000829,0.002762,32.7,83.996,1559177160.664060116
0.4329,0.0595,0.2220,-0.036,0.128,-9.685,0.000399,0.000166,0.001415,32.7,83.983,1559177160.665068626
0.4296,0.0629,0.2222,-0.045,0.190,-9.691,0.001273,-0.001014,0.001618,32.7,83.983,1559177160.666170597
0.4339,0.0595,0.2220,-0.046,0.148,-9.672,0.001796,-0.001389,0.002362,32.7,83.996,1559177160.667219639
0.4307,0.0606,0.2222,-0.044,0.178,-9.693,0.001059,-0.002819,0.001097,32.7,83.983,1559177160.752808571
0.4307,0.0618,0.2208,-0.072,0.195,-9.685,0.001092,-0.000656,0.001979,32.7,83.996,1559177160.753945827
0.4350,0.0629,0.2206,-0.063,0.175,-9.686,0.000573,-0.000932,0.001272,32.7,83.992,1559177160.754964352
0.4339,0.0595,0.2206,-0.044,0.168,-9.714,0.001039,-0.000311,0.001485,32.7,83.996,1559177160.756044149
0.4329,0.0606,0.2193,-0.042,0.170,-9.710,0.001662,-0.000904,0.000833,32.7,83.983,1559177160.843708992
0.4328,0.0629,0.2221,-0.067,0.184,-9.680,0.000342,-0.002133,0.001565,32.7,83.992,1559177160.844733238
0.4318,0.0640,0.2249,-0.067,0.175,-9.684,0.000867,-0.001601,0.002562,32.7,84.012,1559177160.845859528
0.4286,0.0583,0.2195,-0.056,0.151,-9.689,0.001383,-0.001241,0.001806,32.7,83.983,1559177160.846904278
0.4329,0.0629,0.2248,-0.060,0.199,-9.691,0.000485,-0.001905,0.000992,32.7,83.983,1559177160.847924471
0.4296,0.0606,0.2209,-0.052,0.172,-9.683,0.001352,-0.001282,0.000846,32.7,83.983,1559177160.933411598
0.4318,0.0617,0.2235,-0.041,0.191,-9.683,0.001240,-0.001469,0.002468,32.7,83.983,1559177160.934424639
0.4329,0.0617,0.2207,-0.046,0.177,-9.684,0.001278,-0.001065,0.000866,32.7,83.996,1559177160.935579777
0.4339,0.0595,0.2193,-0.066,0.177,-9.685,0.001223,-0.001878,0.001977,32.7,83.996,1559177160.936607361
0.4329,0.0606,0.2220,-0.067,0.176,-9.708,0.001530,-0.000758,0.001127,32.7,83.996,1559177161.023312092
0.4318,0.0629,0.2221,-0.042,0.173,-9.686,0.001902,0.000250,0.001844,32.7,83.986,1559177161.024454832
0.4339,0.0606,0.2247,-0.036,0.170,-9.711,0.001614,0.000314,0.002231,32.7,83.996,1559177161.025547981
0.4318,0.0617,0.2208,-0.044,0.164,-9.697,0.001164,-0.001243,0.002211,32.7,83.996,1559177161.026580572
0.4329,0.0606,0.2207,-0.051,0.167,-9.698,0.000639,-0.000674,0.002084,32.7,83.996,1559177161.027618885
0.4350,0.0640,0.2206,-0.054,0.189,-9.679,0.000400,-0.000015,0.001138,32.7,83.983,1559177161.112957716
0.4307,0.0595,0.2208,-0.039,0.159,-9.671,0.000533,-0.002707,0.001864,32.7,83.996,1559177161.113976240
0.4318,0.0617,0.2208,-0.068,0.180,-9.701,0.000940,-0.001803,0.000969,32.7,83.970,1559177161.115008354
0.4329,0.0606,0.2207,-0.036,0.187,-9.673,0.000437,0.000090,0.000827,32.7,83.996,1559177161.116800785
0.4318,0.0583,0.2221,-0.059,0.163,-9.686,0.000980,-0.000751,0.001534,32.7,83.983,1559177161.203927755
0.4318,0.0629,0.2221,-0.050,0.161,-9.709,0.001528,-0.001601,0.003043,32.7,83.983,1559177161.204954624
0.4329,0.0606,0.2207,-0.044,0.170,-9.723,0.000525,-0.002104,0.001566,32.7,83.996,1559177161.206024647
0.4318,0.0606,0.2207,-0.047,0.183,-9.685,0.000433,-0.000237,0.001600,32.7,83.983,1559177161.207069159
0.4296,0.0618,0.2222,-0.051,0.171,-9.714,0.001449,-0.000370,0.001725,32.7,83.983,1559177161.208096981
0.4372,0.0594,0.2218,-0.063,0.182,-9.666,0.001003,-0.001720,0.000788,32.7,83.996,1559177161.293670893
0.4318,0.0606,0.2194,-0.052,0.175,-9.686,0.001855,-0.001187,0.002213,32.7,83.996,1559177161.294692993
0.4318,0.0640,0.2221,-0.061,0.180,-9.724,0.000735,-0.000638,0.001947,32.7,83.996,1559177161.295780182
0.4329,0.0617,0.2207,-0.030,0.151,-9.722,0.000150,-0.001683,0.001485,32.7,83.983,1559177161.296806335
0.4318,0.0640,0.2180,-0.030,0.176,-9.732,0.000359,-0.000436,0.002125,32.7,83.983,1559177161.384745121
0.4339,0.0595,0.2206,-0.044,0.179,-9.715,0.001238,-0.001091,0.002243,32.7,83.983,1559177161.385827541
0.4361,0.0617,0.2205,-0.027,0.170,-9.693,0.001564,-0.000493,0.000874,32.7,83.996,1559177161.386853695
0.4318,0.0640,0.2235,-0.063,0.152,-9.715,0.001055,-0.001034,0.002177,32.7,83.983,1559177161.387881517
0.4318,0.0606,0.2167,-0.047,0.179,-9.677,0.001544,-0.000463,-0.000247,32.7,83.983,1559177161.388895750
0.4350,0.0606,0.2192,-0.035,0.186,-9.682,0.000886,-0.002555,0.002125,32.7,83.986,1559177161.474416494
0.4318,0.0640,0.2208,-0.041,0.170,-9.711,0.001117,-0.000094,0.001951,32.7,83.996,1559177161.475535870
0.4318,0.0629,0.2248,-0.050,0.195,-9.669,0.001397,-0.001253,0.001798,32.7,84.009,1559177161.476548195
0.4318,0.0606,0.2235,-0.050,0.167,-9.683,0.000495,-0.001646,0.000983,32.7,83.983,1559177161.477564096
0.4307,0.0618,0.2222,-0.059,0.167,-9.686,0.000955,-0.000373,0.002549,32.7,83.996,1559177161.564163923
0.4329,0.0595,0.2193,-0.048,0.172,-9.660,0.000559,-0.000581,0.002109,32.7,83.983,1559177161.565188646
0.4361,0.0617,0.2151,-0.041,0.188,-9.693,0.000563,0.000018,0.002043,32.7,83.983,1559177161.566262245
0.4285,0.0629,0.2223,-0.063,0.198,-9.675,0.000857,-0.000674,0.001139,32.7,83.992,1559177161.567316055
0.4318,0.0606,0.2221,-0.038,0.176,-9.721,0.001057,-0.001778,0.001073,32.7,83.996,1559177161.568333387
0.4361,0.0606,0.2219,-0.043,0.173,-9.684,0.000886,-0.001103,0.001004,32.7,83.996,1559177161.654129505
0.4318,0.0606,0.2221,-0.057,0.161,-9.670,0.001098,-0.001764,0.001377,32.7,83.996,1559177161.658278704
0.4318,0.0606,0.2248,-0.043,0.185,-9.696,0.001304,-0.001142,0.001871,32.7,83.996,1559177161.659363031
0.4318,0.0629,0.2167,-0.044,0.170,-9.708,0.000825,-0.000966,0.002018,32.7,83.996,1559177161.660385370
0.4329,0.0629,0.2234,-0.045,0.179,-9.654,0.001797,-0.000236,0.001075,32.7,84.009,1559177161.744966507
0.4329,0.0617,0.2207,-0.041,0.188,-9.688,0.000464,0.000121,0.001578,32.7,83.983,1559177161.746079445
0.4361,0.0606,0.2191,-0.034,0.176,-9.677,0.000605,-0.000142,0.001897,32.7,83.996,1559177161.747189283
0.4318,0.0617,0.2208,-0.044,0.180,-9.692,0.000919,-0.000678,0.000354,32.7,83.996,1559177161.748204708
0.4339,0.0617,0.2206,-0.040,0.202,-9.690,0.002438,-0.000168,0.001615,32.7,83.996,1559177161.749222755
0.4339,0.0617,0.2220,-0.051,0.171,-9.657,0.001215,-0.000914,0.002543,32.7,83.983,1559177161.834697008
0.4318,0.0617,0.2208,-0.052,0.197,-9.699,0.001200,-0.001131,0.002071,32.7,83.996,1559177161.835853100
0.4339,0.0617,0.2206,-0.032,0.192,-9.666,0.000801,-0.000654,0.002788,32.7,83.983,1559177161.836863518
0.4339,0.0606,0.2206,-0.050,0.163,-9.707,0.000661,-0.001535,0.000919,32.7,83.983,1559177161.837876081
0.4339,0.0629,0.2179,-0.049,0.187,-9.670,0.002031,-0.000711,0.001311,32.7,83.999,1559177161.925661087
0.4307,0.0640,0.2249,-0.044,0.190,-9.691,0.001528,-0.001395,0.001631,32.7,83.983,1559177161.926675320
0.4361,0.0640,0.2205,-0.043,0.172,-9.683,0.001197,-0.000999,0.002083,32.7,83.996,1559177161.927710056
0.4328,0.0640,0.2193,-0.066,0.166,-9.719,0.001717,-0.000323,0.002445,32.7,83.996,1559177161.928731918
0.4318,0.0617,0.2235,-0.017,0.173,-9.677,0.001773,-0.000613,0.001103,32.7,83.983,1559177161.929749012
0.4350,0.0617,0.2219,-0.043,0.169,-9.685,0.001259,-0.001138,0.001039,32.7,83.996,1559177162.015414953
0.4307,0.0618,0.2222,-0.054,0.181,-9.674,0.001278,-0.002279,0.001552,32.7,83.996,1559177162.016428947
0.4318,0.0595,0.2194,-0.054,0.143,-9.689,0.000946,-0.001031,0.001658,32.7,83.983,1559177162.017448664
0.4329,0.0606,0.2207,-0.043,0.187,-9.670,0.001065,-0.000594,0.000899,32.7,83.983,1559177162.018482924
0.4329,0.0617,0.2221,-0.026,0.184,-9.691,0.001793,-0.000645,0.001165,32.7,83.996,1559177162.105193615
0.4318,0.0617,0.2208,-0.075,0.153,-9.682,0.000109,-0.001310,0.002572,32.7,83.983,1559177162.106298923
0.4318,0.0640,0.2221,-0.062,0.170,-9.658,0.000597,-0.001271,0.002454,32.7,83.983,1559177162.107335329
0.4328,0.0629,0.2207,-0.037,0.148,-9.688,0.001277,-0.000658,0.001006,32.7,83.996,1559177162.108355522
0.4339,0.0606,0.2233,-0.046,0.171,-9.725,0.001389,-0.001893,0.001246,32.7,83.983,1559177162.109372854
0.4339,0.0617,0.2193,-0.055,0.172,-9.669,0.001075,-0.001129,0.002668,32.7,83.983,1559177162.194913387
0.4318,0.0595,0.2221,-0.049,0.188,-9.674,0.000450,-0.000841,0.000886,32.7,83.983,1559177162.195986032
0.4307,0.0595,0.2235,-0.059,0.163,-9.689,0.002155,-0.000204,0.001246,32.7,83.983,1559177162.197004318
0.4350,0.0606,0.2219,-0.042,0.183,-9.681,0.000708,-0.001093,0.001938,32.7,83.992,1559177162.198017597
0.4318,0.0595,0.2235,-0.056,0.161,-9.726,0.000274,-0.000581,0.000742,32.7,83.996,1559177162.286033630
0.4350,0.0652,0.2206,-0.060,0.194,-9.691,0.000405,-0.000370,0.001017,32.7,83.996,1559177162.287177801
0.4328,0.0629,0.2207,-0.055,0.156,-9.698,0.000882,-0.002084,0.001738,32.7,83.983,1559177162.288178682
0.4318,0.0629,0.2221,-0.057,0.172,-9.679,0.000524,-0.001226,0.001312,32.7,83.983,1559177162.289191961
0.4318,0.0629,0.2221,-0.066,0.184,-9.718,0.000810,-0.001632,0.001699,32.7,83.992,1559177162.290235519
0.4350,0.0640,0.2165,-0.066,0.155,-9.705,0.001878,-0.000285,0.001686,32.7,83.996,1559177162.375706434
0.4307,0.0606,0.2208,-0.051,0.160,-9.671,0.000992,-0.002469,0.001710,32.7,83.992,1559177162.376723528
0.4329,0.0617,0.2221,-0.067,0.170,-9.692,0.000537,-0.001633,0.002430,32.7,83.996,1559177162.377737761
0.4329,0.0617,0.2207,-0.068,0.158,-9.662,0.000842,-0.001964,0.002031,32.7,83.996,1559177162.378759861
0.4307,0.0595,0.2222,-0.053,0.202,-9.678,0.000958,-0.001253,0.001498,32.7,83.996,1559177162.466659546
0.4318,0.0606,0.2194,-0.057,0.165,-9.681,0.001423,-0.000330,0.001858,32.7,83.983,1559177162.467706203
0.4339,0.0629,0.2220,-0.032,0.166,-9.713,0.001760,-0.000585,0.000369,32.7,83.983,1559177162.468723059
0.4307,0.0618,0.2194,-0.049,0.165,-9.668,0.001637,-0.000716,0.001380,32.7,83.996,1559177162.469744205
0.4307,0.0640,0.2236,-0.064,0.173,-9.670,0.000745,-0.001663,0.001746,32.7,83.983,1559177162.470762253
0.4307,0.0618,0.2222,-0.071,0.169,-9.676,0.001184,-0.001249,0.002276,32.7,83.996,1559177162.556407928
0.4329,0.0606,0.2220,-0.058,0.171,-9.680,0.001493,-0.002027,0.000881,32.7,83.996,1559177162.557491302
0.4339,0.0629,0.2193,-0.041,0.183,-9.716,0.000046,-0.001319,0.002550,32.7,83.983,1559177162.558508158
0.4328,0.0617,0.2193,-0.050,0.184,-9.672,0.000078,-0.000607,0.000886,32.7,83.983,1559177162.559546232
0.4339,0.0606,0.2206,-0.042,0.166,-9.663,0.001482,-0.001668,0.002142,32.7,83.996,1559177162.646167040
0.4329,0.0617,0.2221,-0.062,0.190,-9.700,0.001807,-0.000985,0.001835,32.7,83.983,1559177162.647217512
0.4339,0.0629,0.2206,-0.062,0.178,-9.691,0.001414,0.000511,0.002243,32.7,83.983,1559177162.648234606
0.4307,0.0595,0.2194,-0.049,0.163,-9.693,0.000060,-0.001750,0.001791,32.7,83.983,1559177162.649256229
0.4318,0.0595,0.2221,-0.062,0.180,-9.700,0.001566,-0.002007,0.001938,32.7,83.996,1559177162.650284529
0.4339,0.0629,0.2206,-0.025,0.193,-9.706,-0.000017,-0.000601,0.002430,32.7,83.996,1559177162.735937357
0.4318,0.0629,0.2208,-0.047,0.150,-9.692,0.000792,-0.000499,0.001728,32.7,83.996,1559177162.736957312
0.4318,0.0595,0.2235,-0.046,0.167,-9.685,0.000929,-0.002088,0.000847,32.7,83.983,1559177162.737986088
0.4329,0.0583,0.2234,-0.055,0.178,-9.664,0.001537,-0.000793,0.002150,32.7,83.983,1559177162.739032745
0.4296,0.0606,0.2222,-0.049,0.171,-9.698,0.000670,-0.001620,0.001509,32.7,83.983,1559177162.826974869
0.4318,0.0618,0.2180,-0.055,0.165,-9.669,0.000419,-0.000414,0.001053,32.7,83.996,1559177162.828034878
0.4339,0.0595,0.2206,-0.035,0.171,-9.680,0.001979,-0.001618,0.001312,32.7,83.983,1559177162.829043388
0.4307,0.0606,0.2208,-0.039,0.168,-9.657,0.000676,-0.001797,0.001244,32.7,84.009,1559177162.830061913
0.4339,0.0617,0.2234,-0.034,0.154,-9.692,0.001413,-0.000774,0.001219,32.7,83.983,1559177162.831094027
0.4339,0.0629,0.2193,-0.047,0.183,-9.707,0.000677,-0.000903,0.001231,32.7,83.996,1559177162.916667461
0.4329,0.0617,0.2207,-0.062,0.154,-9.695,0.000325,-0.001822,0.000241,32.7,83.996,1559177162.917688847
0.4307,0.0629,0.2249,-0.037,0.161,-9.693,0.000260,-0.000919,0.002030,32.7,83.996,1559177162.918706179
0.4339,0.0629,0.2206,-0.024,0.190,-9.688,0.000178,-0.000002,0.001551,32.7,83.983,1559177162.919730902
0.4307,0.0606,0.2222,-0.039,0.181,-9.686,0.000718,-0.001465,0.001680,32.7,83.996,1559177163.007663727
0.4318,0.0606,0.2235,-0.060,0.166,-9.720,0.000534,-0.002003,0.001084,32.7,83.996,1559177163.008683681
0.4329,0.0606,0.2193,-0.038,0.171,-9.710,0.000256,-0.000921,0.002069,32.7,83.996,1559177163.009706259
0.4318,0.0618,0.2194,-0.077,0.172,-9.700,0.000463,-0.001304,0.001751,32.7,83.996,1559177163.010735750
0.4318,0.0617,0.2208,-0.029,0.177,-9.687,0.000442,-0.001168,0.001199,32.7,83.983,1559177163.011768579
0.4350,0.0606,0.2192,-0.055,0.181,-9.669,0.001887,-0.001662,0.002874,32.7,83.996,1559177163.097407103
0.4339,0.0617,0.2206,-0.047,0.139,-9.683,0.001502,-0.000005,0.001796,32.7,83.996,1559177163.098450661
0.4318,0.0617,0.2221,-0.055,0.173,-9.667,0.001572,-0.002419,0.001964,32.7,83.983,1559177163.099503279
0.4307,0.0618,0.2235,-0.019,0.162,-9.688,0.001205,-0.001016,0.001352,32.7,83.983,1559177163.100520611
0.4329,0.0617,0.2207,-0.032,0.154,-9.708,0.001131,-0.001190,0.001473,32.7,83.983,1559177163.187193871
0.4350,0.0606,0.2233,-0.046,0.187,-9.717,0.000830,0.000379,0.000999,32.7,83.996,1559177163.188220739
0.4339,0.0629,0.2220,-0.046,0.171,-9.714,0.001757,-0.001194,0.001624,32.7,83.983,1559177163.189246655
0.4318,0.0617,0.2221,-0.058,0.164,-9.710,0.001001,-0.000202,0.002031,32.7,83.996,1559177163.190270662
0.4329,0.0629,0.2234,-0.039,0.164,-9.733,0.000859,0.000031,0.000901,32.7,83.996,1559177163.191310883
0.4361,0.0606,0.2232,-0.062,0.149,-9.691,0.001506,-0.000745,0.001285,32.7,83.983,1559177163.276912928
0.4307,0.0618,0.2208,-0.050,0.175,-9.706,0.001123,-0.001521,0.001552,32.7,83.983,1559177163.277935266
0.4328,0.0629,0.2207,-0.048,0.163,-9.680,0.000721,-0.001074,0.001631,32.7,83.983,1559177163.278968573
0.4350,0.0629,0.2206,-0.035,0.177,-9.721,0.000449,-0.001412,0.001979,32.7,83.983,1559177163.279988289
0.4339,0.0640,0.2234,-0.057,0.162,-9.717,0.001952,-0.002367,0.001554,32.7,83.983,1559177163.280999899
0.4339,0.0606,0.2233,-0.067,0.174,-9.698,0.002131,-0.000149,0.002609,32.7,83.983,1559177163.367910624
0.4372,0.0629,0.2218,-0.052,0.179,-9.729,0.001150,-0.001562,0.001467,32.7,83.983,1559177163.368924141
0.4318,0.0640,0.2208,-0.062,0.177,-9.697,0.000391,-0.001839,0.001683,32.7,83.996,1559177163.369948626
0.4339,0.0640,0.2207,-0.043,0.186,-9.705,0.001502,-0.002074,0.001979,32.7,83.996,1559177163.370996237
0.4372,0.0629,0.2205,-0.065,0.163,-9.697,0.001331,-0.002172,0.001685,32.7,83.996,1559177163.458918095
0.4318,0.0595,0.2180,-0.063,0.147,-9.711,0.001517,-0.001732,0.000967,32.7,83.983,1559177163.459954500
0.4350,0.0583,0.2233,-0.052,0.170,-9.716,0.000939,-0.001882,0.002103,32.7,83.996,1559177163.460969448
0.4318,0.0629,0.2208,-0.041,0.185,-9.655,0.000701,-0.000038,0.000831,32.7,83.996,1559177163.461989880
0.4339,0.0629,0.2193,-0.021,0.184,-9.679,0.001410,-0.001372,0.001524,32.7,83.996,1559177163.463018417
0.4318,0.0617,0.2208,-0.061,0.171,-9.687,-0.000329,-0.001603,0.002090,32.7,83.983,1559177163.548666000
0.4329,0.0606,0.2220,-0.043,0.187,-9.670,0.000146,-0.000890,0.002744,32.7,83.996,1559177163.549692869
0.4318,0.0606,0.2194,-0.036,0.148,-9.664,0.000350,-0.001908,0.001378,32.7,83.996,1559177163.550706387
0.4329,0.0617,0.2221,-0.084,0.175,-9.711,0.001571,-0.001744,0.001073,32.7,83.983,1559177163.551729918
0.4350,0.0606,0.2219,-0.040,0.181,-9.674,0.000381,-0.000651,0.002716,32.7,83.992,1559177163.639971495
0.4318,0.0617,0.2235,-0.045,0.189,-9.717,0.001347,-0.000678,0.002415,32.7,83.996,1559177163.641337872
0.4339,0.0617,0.2206,-0.028,0.163,-9.688,0.001866,-0.001422,0.000833,32.7,83.996,1559177163.642597914
0.4372,0.0617,0.2205,-0.048,0.170,-9.701,0.000684,-0.000773,0.002011,32.7,83.970,1559177163.643728256
0.4328,0.0640,0.2221,-0.057,0.170,-9.677,0.000645,-0.001410,0.001232,32.7,83.979,1559177163.644787073
0.4318,0.0606,0.2235,-0.054,0.177,-9.693,0.000160,-0.001710,0.001006,32.7,83.996,1559177163.728275776
0.4285,0.0618,0.2223,-0.037,0.196,-9.694,-0.000262,-0.001205,0.000419,32.7,83.979,1559177163.729407310
0.4296,0.0629,0.2195,-0.060,0.182,-9.682,0.001930,-0.000473,0.002008,32.7,83.996,1559177163.730432510
0.4339,0.0617,0.2193,-0.047,0.152,-9.693,0.000815,-0.000516,0.001139,32.7,83.996,1559177163.731479168
0.4329,0.0595,0.2207,-0.047,0.156,-9.681,-0.000337,-0.001758,0.001259,32.7,83.996,1559177163.819287777
0.4307,0.0629,0.2235,-0.039,0.186,-9.697,0.001204,-0.002479,0.001845,32.7,83.983,1559177163.820430756
0.4350,0.0617,0.2233,-0.036,0.171,-9.697,0.001489,-0.001641,0.000834,32.7,83.983,1559177163.821431637
0.4328,0.0629,0.2207,-0.064,0.191,-9.734,0.000853,-0.002128,0.002169,32.7,83.996,1559177163.822443485
0.4350,0.0629,0.2247,-0.054,0.177,-9.715,0.001582,-0.000544,0.001900,32.7,83.996,1559177163.823478937
0.4328,0.0640,0.2207,-0.058,0.162,-9.696,0.000635,-0.002304,0.001936,32.7,83.996,1559177163.908947468
0.4318,0.0617,0.2221,-0.051,0.170,-9.701,0.001811,-0.001161,0.001659,32.7,83.996,1559177163.909958601
0.4339,0.0640,0.2234,-0.069,0.166,-9.714,0.001295,-0.000792,0.002168,32.7,83.983,1559177163.910988331
0.4340,0.0595,0.2233,-0.037,0.192,-9.658,0.001049,-0.000774,0.002216,32.7,83.996,1559177163.912008524
0.4361,0.0629,0.2178,-0.062,0.193,-9.665,0.000676,-0.001635,0.001379,32.7,83.996,1559177163.999912024
0.4296,0.0606,0.2209,-0.072,0.195,-9.672,0.000527,-0.001342,0.001724,32.7,83.996,1559177164.000932217
0.4318,0.0606,0.2180,-0.042,0.185,-9.681,0.001054,-0.000148,0.002004,32.7,83.983,1559177164.001960754
0.4339,0.0629,0.2193,-0.034,0.154,-9.705,0.000829,-0.001413,0.001181,32.7,83.996,1559177164.003006220
0.4307,0.0618,0.2208,-0.054,0.172,-9.688,0.001323,-0.001624,0.001830,32.7,83.996,1559177164.004035234
0.4339,0.0617,0.2220,-0.029,0.145,-9.689,0.001342,-0.002729,0.002204,32.7,83.983,1559177164.089679003
0.4329,0.0606,0.2207,-0.026,0.165,-9.738,0.002349,-0.001407,0.002311,32.7,83.996,1559177164.090722799
0.4307,0.0606,0.2249,-0.051,0.172,-9.669,0.001646,-0.000413,0.001919,32.7,83.996,1559177164.091754198
0.4328,0.0629,0.2221,-0.031,0.160,-9.698,0.001674,-0.000013,0.000701,32.7,83.996,1559177164.092769384
0.4350,0.0617,0.2192,-0.042,0.162,-9.719,0.000467,-0.000641,0.001323,32.7,83.996,1559177164.180657387
0.4318,0.0606,0.2221,-0.034,0.185,-9.686,0.001021,-0.000407,0.002299,32.7,83.996,1559177164.181671858
0.4318,0.0606,0.2207,-0.035,0.183,-9.734,0.001088,-0.000325,0.000913,32.7,83.983,1559177164.182688951
0.4350,0.0595,0.2219,-0.036,0.156,-9.660,0.001601,-0.000997,0.001419,32.7,83.970,1559177164.183716536
0.4286,0.0606,0.2223,-0.037,0.173,-9.699,0.000115,-0.000218,0.001444,32.7,83.983,1559177164.184730768
0.4328,0.0640,0.2234,-0.046,0.192,-9.671,0.000972,-0.000907,0.002176,32.7,83.983,1559177164.269156933
0.4339,0.0617,0.2206,-0.033,0.183,-9.680,0.000622,0.000041,0.001072,32.7,83.983,1559177164.270167112
0.4318,0.0629,0.2194,-0.041,0.168,-9.686,0.001438,-0.001107,0.001918,32.7,83.983,1559177164.271204948
0.4328,0.0640,0.2193,-0.032,0.186,-9.695,0.001401,-0.001450,0.002605,32.7,83.983,1559177164.272222519
0.4328,0.0617,0.2180,-0.025,0.157,-9.693,0.001139,-0.000883,0.001498,32.7,83.996,1559177164.360210896
0.4329,0.0617,0.2207,-0.065,0.183,-9.690,0.000590,-0.001062,0.001698,32.7,83.996,1559177164.361229181
0.4318,0.0629,0.2208,-0.046,0.160,-9.694,0.001378,-0.001799,0.001659,32.7,83.996,1559177164.362269640
0.4361,0.0629,0.2232,-0.052,0.153,-9.709,0.001649,-0.001153,0.002218,32.7,83.983,1559177164.363323212
0.4318,0.0617,0.2221,-0.038,0.182,-9.704,0.000673,-0.001260,0.001765,32.7,83.983,1559177164.364337921
0.4339,0.0606,0.2233,-0.059,0.176,-9.713,0.000551,-0.001678,0.002068,32.7,83.983,1559177164.449909210
0.4339,0.0606,0.2220,-0.026,0.182,-9.683,0.000787,-0.000569,0.002508,32.7,83.996,1559177164.450937271
0.4307,0.0618,0.2222,-0.045,0.189,-9.681,0.000371,-0.000376,0.001706,32.7,83.996,1559177164.451954126
0.4350,0.0629,0.2206,-0.055,0.189,-9.682,0.001883,-0.001655,0.002123,32.7,83.996,1559177164.452971697
0.4318,0.0617,0.2208,-0.042,0.177,-9.715,0.000451,-0.001207,0.002150,32.7,83.996,1559177164.540904522
0.4339,0.0606,0.2220,-0.074,0.160,-9.650,0.001034,-0.001543,0.000101,32.7,83.983,1559177164.541919470
0.4329,0.0617,0.2207,-0.023,0.158,-9.664,0.001177,-0.001383,0.001839,32.7,83.983,1559177164.542947769
0.4350,0.0629,0.2233,-0.046,0.182,-9.716,0.001954,-0.001427,0.002032,32.7,83.986,1559177164.543968678
0.4307,0.0618,0.2194,-0.035,0.172,-9.712,0.000757,-0.001512,0.002024,32.7,83.996,1559177164.544983387
0.4339,0.0617,0.2234,-0.087,0.179,-9.677,0.000788,0.000673,0.001498,32.7,83.983,1559177164.630664587
0.4339,0.0606,0.2220,-0.050,0.169,-9.696,0.000721,-0.001914,0.001658,32.7,83.983,1559177164.631708860
0.4307,0.0583,0.2235,-0.056,0.169,-9.679,0.000494,-0.001419,0.002336,32.7,83.983,1559177164.632720232
0.4340,0.0595,0.2247,-0.058,0.174,-9.682,0.001448,-0.000397,0.001022,32.7,83.983,1559177164.633732796
0.4318,0.0595,0.2207,-0.056,0.171,-9.731,0.001456,0.000255,0.001554,32.7,83.996,1559177164.721684456
0.4318,0.0629,0.2235,-0.037,0.177,-9.679,0.000415,-0.001882,0.000793,32.7,83.996,1559177164.727000713
0.4307,0.0618,0.2249,-0.038,0.154,-9.677,0.000545,-0.001917,0.001138,32.7,84.009,1559177164.728060722
0.4350,0.0629,0.2206,-0.071,0.164,-9.664,0.000282,-0.001192,0.000606,32.7,83.983,1559177164.729063034
0.4339,0.0629,0.2206,-0.071,0.159,-9.669,0.001825,-0.001239,0.002787,32.7,83.983,1559177164.730077505
0.4328,0.0640,0.2221,-0.038,0.189,-9.689,0.000714,-0.001379,0.001817,32.7,83.996,1559177164.810168266
0.4318,0.0606,0.2221,-0.051,0.161,-9.694,0.000056,-0.001381,0.001193,32.7,83.996,1559177164.811205626
0.4329,0.0583,0.2234,-0.010,0.179,-9.689,0.000909,-0.001176,0.001963,32.7,83.996,1559177164.812222719
0.4328,0.0640,0.2207,-0.067,0.168,-9.700,0.000968,-0.001366,0.001835,32.7,83.983,1559177164.813240528
0.4361,0.0594,0.2205,-0.052,0.204,-9.684,-0.000029,-0.000325,0.001526,32.7,83.983,1559177164.901180744
0.4307,0.0618,0.2235,-0.059,0.179,-9.719,0.000633,0.000296,0.001073,32.7,83.983,1559177164.902196646
0.4307,0.0629,0.2222,-0.070,0.162,-9.673,0.000106,-0.000010,0.000420,32.7,83.992,1559177164.903242588
0.4318,0.0617,0.2221,-0.054,0.167,-9.710,0.000502,-0.000573,0.001272,32.7,83.996,1559177164.904258490
0.4296,0.0606,0.2209,-0.048,0.165,-9.705,0.001663,-0.001663,0.001366,32.7,83.979,1559177164.905359983
0.4350,0.0617,0.2179,-0.028,0.169,-9.665,0.001423,-0.001283,0.001297,32.7,83.983,1559177164.990913630
0.4328,0.0640,0.2207,-0.042,0.172,-9.701,0.000429,-0.000546,0.001881,32.7,83.983,1559177164.991937637
0.4307,0.0618,0.2222,-0.043,0.160,-9.707,0.001521,-0.001717,0.002014,32.7,83.996,1559177164.992947817
0.4340,0.0583,0.2220,-0.047,0.165,-9.671,0.001272,-0.000564,0.001369,32.7,83.983,1559177164.993976116
0.4350,0.0606,0.2219,-0.046,0.187,-9.709,0.000438,-0.001571,0.001406,32.7,83.996,1559177165.081940413
0.4307,0.0595,0.2222,-0.056,0.185,-9.701,0.001244,-0.001895,0.000967,32.7,83.983,1559177165.082976580
0.4318,0.0583,0.2221,-0.062,0.162,-9.685,0.001274,-0.000363,0.001179,32.7,83.983,1559177165.083994389
0.4328,0.0629,0.2221,-0.061,0.160,-9.723,0.000894,-0.001098,0.001711,32.7,84.009,1559177165.085013151
0.4339,0.0640,0.2207,-0.044,0.173,-9.684,0.000529,-0.001691,0.001193,32.7,83.996,1559177165.086072683
0.4350,0.0617,0.2247,-0.047,0.168,-9.691,0.000728,-0.001214,0.000505,32.7,83.979,1559177165.171677828
0.4350,0.0629,0.2179,-0.025,0.175,-9.695,0.001257,-0.001626,0.001712,32.7,83.996,1559177165.172688961
0.4286,0.0583,0.2209,-0.039,0.161,-9.660,0.002165,-0.001491,0.002110,32.7,83.996,1559177165.173719406
0.4328,0.0629,0.2207,-0.070,0.193,-9.675,0.000816,-0.001160,0.001671,32.7,83.983,1559177165.174733639
0.4350,0.0617,0.2247,-0.045,0.176,-9.669,0.001438,-0.001593,0.002420,32.7,83.983,1559177165.262765646
0.4318,0.0595,0.2221,-0.053,0.160,-9.696,0.000889,-0.000680,0.001722,32.7,83.983,1559177165.263918638
0.4318,0.0617,0.2208,-0.049,0.179,-9.672,0.000807,-0.002041,0.001954,32.7,83.983,1559177165.264918089
0.4328,0.0640,0.2193,-0.062,0.160,-9.699,0.001978,-0.000873,0.000754,32.7,83.996,1559177165.266021967
0.4318,0.0640,0.2221,-0.029,0.172,-9.686,0.000833,-0.000701,0.001272,32.7,83.983,1559177165.267060280
0.4339,0.0629,0.2234,-0.061,0.158,-9.697,0.001693,-0.000471,0.002404,32.7,83.996,1559177165.352424383
0.4328,0.0640,0.2180,-0.055,0.182,-9.688,0.001161,-0.002996,0.002127,32.7,83.979,1559177165.353438139
0.4318,0.0617,0.2208,-0.056,0.188,-9.707,0.001845,-0.000706,0.000623,32.7,83.983,1559177165.354480743
0.4318,0.0606,0.2207,-0.046,0.181,-9.688,0.001158,-0.001565,0.000913,32.7,83.983,1559177165.355567694
0.4350,0.0617,0.2233,-0.009,0.188,-9.661,-0.000716,-0.001404,0.003046,32.7,83.983,1559177165.442156553
0.4318,0.0629,0.2221,-0.037,0.154,-9.673,0.001378,-0.002247,0.001927,32.7,83.983,1559177165.443197250
0.4339,0.0617,0.2234,-0.067,0.162,-9.704,0.000643,-0.000546,0.000713,32.7,83.996,1559177165.444213629
0.4339,0.0640,0.2220,-0.026,0.155,-9.675,0.000527,-0.000615,0.000986,32.7,83.996,1559177165.445273161
0.4329,0.0629,0.2248,-0.070,0.153,-9.692,0.001933,-0.000949,0.001924,32.7,83.983,1559177165.446295023
0.4318,0.0617,0.2221,-0.038,0.183,-9.654,0.001044,-0.000627,0.000879,32.7,83.996,1559177165.531925917
0.4307,0.0640,0.2249,-0.028,0.164,-9.695,0.000479,-0.001180,0.000993,32.7,83.996,1559177165.532938719
0.4307,0.0629,0.2235,-0.053,0.161,-9.670,0.000777,-0.000978,0.001499,32.7,83.996,1559177165.533952236
0.4318,0.0617,0.2208,-0.055,0.177,-9.712,0.001130,-0.000838,0.002164,32.7,83.983,1559177165.534982681
0.4318,0.0629,0.2194,-0.065,0.198,-9.680,0.001395,-0.001052,0.000956,32.7,83.983,1559177165.622914314
0.4318,0.0640,0.2221,-0.029,0.171,-9.707,0.001576,-0.001524,0.001790,32.7,83.996,1559177165.623947144
0.4339,0.0617,0.2220,-0.041,0.176,-9.689,0.000304,-0.001549,0.001060,32.7,83.996,1559177165.624968767
0.4339,0.0629,0.2220,-0.062,0.178,-9.685,0.000474,-0.001278,0.001470,32.7,83.996,1559177165.626149416
0.4307,0.0618,0.2222,-0.058,0.177,-9.708,0.001192,-0.000178,0.001046,32.7,83.983,1559177165.627207279
0.4350,0.0617,0.2206,-0.049,0.179,-9.653,0.000788,-0.001046,0.001724,32.7,83.996,1559177165.712678194
0.4329,0.0617,0.2248,-0.043,0.181,-9.656,0.001352,-0.001436,0.002674,32.7,83.996,1559177165.713693619
0.4318,0.0617,0.2208,-0.023,0.157,-9.674,0.000752,-0.002328,0.001592,32.7,83.983,1559177165.714723349
0.4339,0.0617,0.2247,-0.048,0.186,-9.687,0.001653,-0.000008,0.001392,32.7,83.992,1559177165.715803623
0.4350,0.0606,0.2192,-0.026,0.173,-9.685,0.001691,-0.000985,0.002111,32.7,83.996,1559177165.803686619
0.4296,0.0640,0.2222,-0.059,0.175,-9.718,0.002125,-0.000790,0.001347,32.7,83.996,1559177165.804697514
0.4329,0.0606,0.2234,-0.036,0.153,-9.684,0.001672,-0.001334,0.001734,32.7,83.996,1559177165.805804491
0.4329,0.0595,0.2234,-0.034,0.156,-9.682,-0.000007,-0.000437,0.001663,32.7,83.996,1559177165.806835890
0.4307,0.0606,0.2222,-0.042,0.162,-9.697,0.001525,-0.001210,0.001499,32.7,83.983,1559177165.807871819
0.4307,0.0618,0.2208,-0.063,0.177,-9.703,0.000691,-0.001674,0.001605,32.7,83.996,1559177165.893404484
0.4339,0.0595,0.2206,-0.041,0.194,-9.707,0.001037,-0.002096,0.001339,32.7,83.983,1559177165.894418240
0.4318,0.0629,0.2235,-0.065,0.179,-9.689,0.000992,-0.000293,0.002496,32.7,83.996,1559177165.895513296
0.4285,0.0629,0.2209,-0.038,0.180,-9.678,0.001550,0.000207,0.002376,32.7,83.983,1559177165.896538734
0.4372,0.0617,0.2218,-0.058,0.176,-9.675,0.001565,0.000590,0.001418,32.7,83.983,1559177165.983162880
0.4307,0.0629,0.2222,-0.041,0.167,-9.699,0.001463,-0.000220,0.001956,32.7,83.996,1559177165.984177113
0.4318,0.0629,0.2194,-0.055,0.164,-9.694,0.000077,-0.001162,0.002770,32.7,83.996,1559177165.985195637
0.4339,0.0595,0.2193,-0.069,0.171,-9.697,0.000752,-0.000261,0.002460,32.7,83.996,1559177165.986301184
0.4329,0.0617,0.2221,-0.048,0.162,-9.702,0.000868,-0.001461,0.001033,32.7,83.983,1559177165.987337828
0.4329,0.0629,0.2234,-0.044,0.159,-9.698,0.001563,-0.002077,0.001193,32.7,83.986,1559177166.072903633
0.4329,0.0606,0.2220,-0.039,0.179,-9.704,0.001442,-0.001147,0.001422,32.7,83.996,1559177166.073924541
0.4329,0.0606,0.2207,-0.064,0.160,-9.651,0.000549,-0.001786,0.001576,32.7,83.983,1559177166.074959517
0.4329,0.0595,0.2207,-0.044,0.176,-9.650,0.000787,-0.001221,0.001456,32.7,83.996,1559177166.076020718
0.4318,0.0640,0.2249,-0.045,0.151,-9.728,0.000999,-0.000948,0.002231,32.7,83.996,1559177166.163925409
0.4307,0.0629,0.2222,-0.053,0.164,-9.690,0.000501,-0.001427,0.000573,32.7,83.983,1559177166.164940357
0.4318,0.0640,0.2221,-0.045,0.181,-9.667,0.000347,-0.001318,0.001076,32.7,83.996,1559177166.166002750
0.4339,0.0617,0.2206,-0.058,0.183,-9.708,0.001219,-0.001069,0.001837,32.7,83.996,1559177166.167047977
0.4339,0.0606,0.2220,-0.039,0.183,-9.684,0.000974,-0.000284,0.001591,32.7,83.996,1559177166.168077469
0.4339,0.0652,0.2234,-0.046,0.175,-9.680,0.001400,-0.001678,0.001459,32.7,83.983,1559177166.253656387
0.4339,0.0629,0.2247,-0.044,0.172,-9.706,0.001543,-0.000463,0.001526,32.7,83.996,1559177166.254669905
0.4286,0.0618,0.2237,-0.042,0.177,-9.710,0.001635,-0.001753,0.001159,32.7,83.983,1559177166.255774736
0.4339,0.0629,0.2206,-0.045,0.194,-9.695,0.001250,-0.000629,0.000953,32.7,83.996,1559177166.256800890
0.4329,0.0617,0.2221,-0.060,0.196,-9.669,-0.000470,-0.001746,0.001165,32.7,83.996,1559177166.344674826
0.4339,0.0629,0.2193,-0.069,0.174,-9.680,0.001094,-0.000653,0.001807,32.7,83.983,1559177166.345758915
0.4318,0.0606,0.2194,-0.048,0.161,-9.681,0.000961,-0.000122,0.001372,32.7,83.996,1559177166.346780300
0.4329,0.0606,0.2193,-0.052,0.168,-9.688,0.000917,-0.000539,0.001602,32.7,83.983,1559177166.347810507
0.4307,0.0629,0.2222,-0.051,0.172,-9.692,0.001645,-0.001221,0.001619,32.7,83.983,1559177166.348820210
0.4328,0.0652,0.2207,-0.048,0.166,-9.654,0.000915,-0.001209,0.000726,32.7,83.996,1559177166.434404135
0.4329,0.0617,0.2221,-0.047,0.184,-9.716,0.000729,0.000070,0.001246,32.7,83.996,1559177166.435507774
0.4307,0.0606,0.2222,-0.054,0.187,-9.660,0.001005,-0.001698,0.001392,32.7,83.992,1559177166.436515093
0.4328,0.0617,0.2193,-0.058,0.150,-9.707,0.001312,0.000041,0.001725,32.7,83.983,1559177166.437532187
0.4318,0.0606,0.2235,-0.030,0.172,-9.672,0.001627,-0.000943,0.001565,32.7,83.983,1559177166.524154902
0.4329,0.0617,0.2207,-0.045,0.188,-9.707,0.001554,-0.001046,0.002244,32.7,83.996,1559177166.525170803
0.4350,0.0640,0.2206,-0.063,0.154,-9.678,0.001064,-0.001029,0.001649,32.7,83.983,1559177166.526241779
0.4350,0.0629,0.2219,-0.041,0.167,-9.713,0.000559,0.000162,0.001346,32.7,83.983,1559177166.527293444
0.4339,0.0617,0.2206,-0.019,0.181,-9.657,0.001210,-0.000849,0.002469,32.7,83.983,1559177166.528340101
0.4350,0.0629,0.2233,-0.065,0.161,-9.678,0.000774,-0.000873,0.002029,32.7,83.996,1559177166.613940001
0.4350,0.0606,0.2178,-0.063,0.166,-9.698,0.000401,-0.001158,0.001868,32.7,83.996,1559177166.614959717
0.4318,0.0629,0.2221,-0.054,0.170,-9.689,0.000691,-0.001190,0.001986,32.7,83.983,1559177166.616029739
0.4329,0.0617,0.2221,-0.045,0.204,-9.660,0.000094,-0.001375,0.001737,32.7,83.996,1559177166.617055178
0.4328,0.0629,0.2221,-0.039,0.182,-9.718,0.001368,-0.000492,0.001888,32.7,83.996,1559177166.704907179
0.4328,0.0640,0.2207,-0.072,0.160,-9.673,0.000561,-0.001200,0.000886,32.7,83.983,1559177166.705973864
0.4361,0.0606,0.2219,-0.055,0.165,-9.702,0.001358,-0.002052,0.001427,32.7,83.999,1559177166.707020998
0.4339,0.0617,0.2206,-0.054,0.173,-9.683,0.000019,-0.000568,0.002463,32.7,83.983,1559177166.708045006
0.4307,0.0618,0.2235,-0.049,0.188,-9.672,0.000349,-0.001624,0.001857,32.7,83.983,1559177166.709084272
0.4307,0.0629,0.2235,-0.073,0.174,-9.708,0.001052,-0.000446,0.001287,32.7,83.983,1559177166.794801950
0.4340,0.0595,0.2233,-0.051,0.180,-9.664,0.000403,-0.000865,0.001605,32.7,83.983,1559177166.796034575
0.4318,0.0629,0.2235,-0.038,0.167,-9.680,0.001149,-0.001494,0.001712,32.7,83.996,1559177166.797050714
0.4339,0.0606,0.2233,-0.043,0.191,-9.733,0.000862,-0.001254,0.002671,32.7,83.996,1559177166.798045635
0.4350,0.0583,0.2205,-0.060,0.174,-9.713,-0.000020,-0.000355,0.000903,32.7,83.996,1559177166.885668516
0.4329,0.0606,0.2220,-0.064,0.181,-9.686,0.001778,-0.000541,0.001338,32.7,83.983,1559177166.886684418
0.4296,0.0618,0.2195,-0.060,0.163,-9.674,0.002147,0.000363,0.000692,32.7,83.996,1559177166.887723446
0.4328,0.0629,0.2193,-0.049,0.155,-9.684,0.001032,-0.001704,0.001131,32.7,83.996,1559177166.888742447
0.4318,0.0617,0.2208,-0.029,0.158,-9.683,0.001355,-0.001755,0.002309,32.7,83.979,1559177166.889765739
0.4340,0.0595,0.2233,-0.050,0.143,-9.652,0.000919,-0.000923,0.002135,32.7,83.996,1559177166.975410700
0.4361,0.0606,0.2219,-0.051,0.161,-9.732,0.001321,-0.000559,0.001899,32.7,83.996,1559177166.976417303
0.4307,0.0618,0.2181,-0.064,0.173,-9.686,0.000758,-0.001753,0.001672,32.7,83.983,1559177166.977434874
0.4339,0.0606,0.2247,-0.061,0.169,-9.687,0.001208,-0.001171,0.002852,32.7,83.996,1559177166.978471994
0.4339,0.0595,0.2179,-0.049,0.172,-9.671,0.001047,-0.000990,0.001825,32.7,83.983,1559177167.065152884
0.4296,0.0606,0.2222,-0.036,0.173,-9.664,0.000789,-0.000084,0.002083,32.7,83.996,1559177167.066255331
0.4318,0.0595,0.2194,-0.042,0.171,-9.678,0.000478,-0.001502,0.001804,32.7,83.983,1559177167.067287207
0.4329,0.0606,0.2234,-0.060,0.179,-9.688,0.000605,-0.000551,0.001658,32.7,83.992,1559177167.068308592
0.4339,0.0617,0.2206,-0.047,0.167,-9.700,0.001302,-0.000951,0.002296,32.7,83.996,1559177167.069326639
0.4328,0.0629,0.2207,-0.042,0.174,-9.700,0.001830,-0.001097,0.001911,32.7,83.996,1559177167.154931784
0.4350,0.0617,0.2247,-0.044,0.166,-9.697,0.001423,-0.000755,0.002077,32.7,83.996,1559177167.156023026
0.4318,0.0606,0.2207,-0.039,0.162,-9.646,0.001540,-0.001875,0.001982,32.7,83.983,1559177167.157032967
0.4329,0.0606,0.2207,-0.064,0.171,-9.701,0.000899,-0.001427,0.001768,32.7,83.996,1559177167.158046246
0.4361,0.0651,0.2205,-0.058,0.181,-9.676,-0.000012,-0.001087,0.001905,32.7,83.996,1559177167.245903730
0.4307,0.0629,0.2249,-0.041,0.184,-9.706,0.001869,-0.000379,0.001379,32.7,83.996,1559177167.246930838
0.4350,0.0617,0.2219,-0.042,0.174,-9.686,0.001264,-0.001145,0.001965,32.7,83.996,1559177167.247955084
0.4361,0.0606,0.2232,-0.044,0.153,-9.682,0.000710,-0.000464,0.001180,32.7,83.996,1559177167.248977423
0.4307,0.0618,0.2194,-0.053,0.173,-9.671,0.000451,-0.001057,0.001516,32.7,83.996,1559177167.250018120
0.4339,0.0617,0.2220,-0.050,0.165,-9.714,0.001237,-0.000864,0.002259,32.7,83.996,1559177167.335715294
0.4339,0.0606,0.2220,-0.056,0.167,-9.682,0.001384,0.000033,0.002576,32.7,83.996,1559177167.336731195
0.4307,0.0595,0.2208,-0.048,0.189,-9.697,0.001074,-0.001303,0.002709,32.7,84.009,1559177167.337745190
0.4318,0.0606,0.2207,-0.038,0.171,-9.666,0.001507,-0.001327,0.002363,32.7,83.996,1559177167.338801146
0.4340,0.0583,0.2206,-0.052,0.154,-9.702,0.000810,-0.000928,0.001379,32.7,83.996,1559177167.426674843
0.4318,0.0617,0.2208,-0.031,0.161,-9.686,0.000202,-0.001332,0.002336,32.7,83.983,1559177167.427724361
0.4307,0.0606,0.2222,-0.053,0.169,-9.696,0.001923,-0.000295,0.001546,32.7,83.996,1559177167.428736210
0.4329,0.0617,0.2221,-0.047,0.191,-9.670,0.001322,-0.001070,0.001731,32.7,83.983,1559177167.429758072
0.4285,0.0606,0.2196,-0.060,0.162,-9.687,0.000285,-0.001165,0.003020,32.7,83.979,1559177167.430772543
0.4318,0.0629,0.2194,-0.061,0.162,-9.698,0.000979,-0.001544,0.001368,32.7,83.992,1559177167.516403198
0.4318,0.0606,0.2207,-0.047,0.164,-9.697,0.001562,-0.000988,0.001337,32.7,83.996,1559177167.517416954
0.4329,0.0617,0.2221,-0.079,0.168,-9.673,0.001409,-0.000788,0.000566,32.7,83.996,1559177167.518434286
0.4350,0.0595,0.2246,-0.056,0.174,-9.739,0.001298,-0.001624,0.001925,32.7,83.996,1559177167.519475698
0.4350,0.0606,0.2219,-0.072,0.165,-9.687,0.001968,-0.000153,0.000914,32.7,83.983,1559177167.606171846
0.4318,0.0617,0.2235,-0.041,0.149,-9.682,0.000290,-0.000969,0.002313,32.7,83.996,1559177167.607205868
0.4318,0.0629,0.2221,-0.039,0.174,-9.696,0.000298,-0.000337,0.000953,32.7,83.996,1559177167.608224392
0.4339,0.0629,0.2193,-0.035,0.187,-9.699,0.001004,-0.000670,0.001566,32.7,83.983,1559177167.609244823
0.4296,0.0595,0.2222,-0.072,0.160,-9.675,0.001143,-0.000605,0.001109,32.7,83.983,1559177167.610273838
0.4307,0.0618,0.2235,-0.033,0.181,-9.681,-0.000334,-0.001636,0.001686,32.7,84.009,1559177167.695904970
0.4328,0.0640,0.2193,-0.040,0.173,-9.715,0.001369,-0.000924,0.002559,32.7,83.996,1559177167.696918726
0.4329,0.0617,0.2248,-0.044,0.183,-9.727,0.000954,-0.001681,0.001556,32.7,83.996,1559177167.697947502
0.4328,0.0617,0.2193,-0.031,0.135,-9.687,0.001049,-0.000695,0.001751,32.7,83.996,1559177167.698995829
0.4350,0.0617,0.2219,-0.057,0.162,-9.716,0.000678,-0.001877,0.001220,32.7,83.983,1559177167.786911249
0.4296,0.0640,0.2182,-0.066,0.177,-9.695,0.001239,-0.001099,0.000182,32.7,83.996,1559177167.787943840
0.4361,0.0606,0.2219,-0.040,0.166,-9.657,0.001531,-0.000907,0.000925,32.7,83.983,1559177167.788968325
0.4361,0.0617,0.2219,-0.059,0.178,-9.684,0.001278,-0.002945,0.001991,32.7,83.996,1559177167.789987803
0.4328,0.0640,0.2221,-0.052,0.171,-9.666,0.000710,-0.000453,0.001647,32.7,83.996,1559177167.791020632
0.4339,0.0617,0.2220,-0.035,0.179,-9.666,0.000749,-0.001220,0.000380,32.7,83.983,1559177167.876673698
0.4350,0.0617,0.2206,-0.033,0.159,-9.696,0.000458,-0.000583,0.000904,32.7,83.996,1559177167.877688169
0.4296,0.0595,0.2209,-0.030,0.162,-9.701,0.001131,-0.000148,0.001910,32.7,83.996,1559177167.878701687
0.4307,0.0629,0.2222,-0.052,0.179,-9.696,0.002195,-0.000799,0.002018,32.7,83.996,1559177167.879728794
0.4328,0.0617,0.2193,-0.029,0.173,-9.682,0.000479,-0.001407,0.002243,32.7,83.983,1559177167.967653751
0.4329,0.0617,0.2289,-0.061,0.175,-9.686,0.001607,-0.000938,0.002310,32.7,83.983,1559177167.968669653
0.4339,0.0629,0.2206,-0.063,0.157,-9.685,0.001313,-0.001793,0.002116,32.7,83.983,1559177167.969685078
0.4328,0.0629,0.2221,-0.035,0.172,-9.679,0.001251,-0.001459,0.001555,32.7,83.970,1559177167.970712185
0.4318,0.0629,0.2248,-0.042,0.187,-9.682,0.000770,-0.001828,0.001799,32.7,83.996,1559177167.971750259
0.4350,0.0629,0.2206,-0.050,0.153,-9.688,0.000927,-0.001186,0.001819,32.7,83.979,1559177168.057437658
0.4350,0.0617,0.2206,-0.035,0.162,-9.695,0.000851,-0.000989,0.001052,32.7,83.996,1559177168.058478832
0.4318,0.0606,0.2221,-0.039,0.182,-9.703,0.001992,-0.001032,0.000674,32.7,83.983,1559177168.059525967
0.4329,0.0629,0.2248,-0.041,0.159,-9.710,0.001397,-0.002035,0.002085,32.7,83.996,1559177168.060540438
0.4307,0.0606,0.2222,-0.059,0.170,-9.678,0.000586,0.000355,0.002363,32.7,83.996,1559177168.147159338
0.4339,0.0617,0.2193,-0.051,0.171,-9.669,0.000991,-0.000645,0.001431,32.7,83.996,1559177168.148175955
0.4329,0.0583,0.2179,-0.051,0.165,-9.664,-0.000135,-0.002047,0.001378,32.7,84.009,1559177168.149195194
0.4339,0.0617,0.2206,-0.050,0.179,-9.692,0.000682,-0.001398,0.001782,32.7,83.996,1559177168.150247097
0.4318,0.0617,0.2221,-0.063,0.177,-9.699,0.000493,-0.001393,0.002283,32.7,83.996,1559177168.151285410
0.4318,0.0595,0.2221,-0.031,0.184,-9.671,0.000927,-0.000393,0.001882,32.7,83.983,1559177168.236913443
0.4329,0.0606,0.2193,-0.034,0.182,-9.673,0.000743,-0.001272,0.000771,32.7,83.996,1559177168.237923622
0.4350,0.0606,0.2206,-0.033,0.195,-9.722,0.001522,-0.001797,0.001383,32.7,83.979,1559177168.238958359
0.4307,0.0606,0.2263,-0.060,0.183,-9.685,0.001428,-0.001443,0.002547,32.7,83.996,1559177168.239988327
0.4307,0.0606,0.2208,-0.065,0.177,-9.695,0.000810,-0.000965,0.002168,32.7,83.983,1559177168.241002798
0.4329,0.0629,0.2234,-0.047,0.176,-9.717,0.000771,-0.001155,0.001033,32.7,83.983,1559177168.328007221
0.4329,0.0595,0.2207,-0.050,0.153,-9.707,0.000956,-0.001426,0.001577,32.7,83.996,1559177168.329140186
0.4339,0.0595,0.2220,-0.063,0.160,-9.712,0.000995,-0.000669,0.002058,32.7,83.992,1559177168.330163956
0.4307,0.0595,0.2222,-0.046,0.172,-9.665,0.001130,-0.001516,0.002602,32.7,83.996,1559177168.331201553
0.4339,0.0617,0.2193,-0.065,0.155,-9.707,0.000581,-0.000752,0.001383,32.7,83.996,1559177168.419066191
0.4318,0.0640,0.2221,-0.060,0.190,-9.669,0.001688,-0.000839,0.001632,32.7,83.996,1559177168.420222282
0.4296,0.0595,0.2181,-0.052,0.159,-9.694,0.001563,-0.001620,0.002150,32.7,83.983,1559177168.421224594
0.4318,0.0617,0.2221,-0.041,0.170,-9.695,0.001048,-0.001085,0.001153,32.7,83.979,1559177168.422232389
0.4339,0.0617,0.2206,-0.068,0.163,-9.686,0.000584,-0.001106,0.001594,32.7,83.996,1559177168.423274755
0.4329,0.0617,0.2221,-0.036,0.174,-9.684,0.001172,-0.000510,0.001338,32.7,83.992,1559177168.508665562
0.4318,0.0629,0.2235,-0.046,0.165,-9.690,0.001951,-0.000630,0.001459,32.7,83.983,1559177168.509678602
0.4328,0.0617,0.2193,-0.047,0.193,-9.697,0.000590,-0.001466,0.002532,32.7,83.996,1559177168.510689974
0.4296,0.0629,0.2236,-0.029,0.196,-9.654,0.001242,-0.001178,0.002067,32.7,83.996,1559177168.511719942
0.4318,0.0629,0.2221,-0.047,0.172,-9.682,0.001685,-0.001898,0.002190,32.7,83.996,1559177168.598404646
0.4329,0.0617,0.2234,-0.050,0.168,-9.692,0.000921,-0.000899,0.001227,32.7,83.996,1559177168.599453449
0.4296,0.0640,0.2209,-0.032,0.192,-9.680,0.000804,-0.000379,0.001779,32.7,83.996,1559177168.600466728
0.4318,0.0617,0.2235,-0.060,0.167,-9.700,0.000644,-0.001237,0.001431,32.7,83.996,1559177168.601487160
0.4329,0.0617,0.2221,-0.053,0.181,-9.661,0.000325,-0.000589,0.000620,32.7,83.996,1559177168.602505922
0.4318,0.0606,0.2235,-0.036,0.185,-9.703,0.001296,-0.001275,0.002483,32.7,83.996,1559177168.689426899
0.4329,0.0617,0.2207,-0.049,0.189,-9.683,0.001365,-0.000972,0.001566,32.7,83.983,1559177168.690470934
0.4317,0.0663,0.2208,-0.037,0.168,-9.714,0.000314,-0.001313,0.001115,32.7,83.996,1559177168.691516876
0.4328,0.0629,0.2193,-0.058,0.186,-9.672,0.001246,-0.000462,0.002642,32.7,83.996,1559177168.692533016
0.4329,0.0595,0.2207,-0.041,0.188,-9.668,0.001447,-0.002225,0.001379,32.7,83.996,1559177168.779221535
0.4350,0.0606,0.2178,-0.034,0.156,-9.675,0.000501,-0.000506,0.001338,32.7,83.970,1559177168.780250311
0.4307,0.0606,0.2235,-0.054,0.176,-9.715,0.000794,-0.001051,0.000179,32.7,83.996,1559177168.781248569
0.4339,0.0617,0.2220,-0.032,0.170,-9.681,0.001055,-0.001886,0.001509,32.7,83.996,1559177168.782269716
0.4318,0.0606,0.2194,-0.046,0.184,-9.695,0.001477,-0.001222,0.002186,32.7,83.996,1559177168.783308268
0.4328,0.0629,0.2221,-0.047,0.186,-9.687,0.001396,0.000319,0.001033,32.7,84.009,1559177168.868922710
0.4350,0.0629,0.2206,-0.023,0.167,-9.676,0.000273,-0.000457,0.000913,32.7,84.009,1559177168.869934559
0.4329,0.0629,0.2234,-0.060,0.159,-9.690,0.000956,-0.000823,0.001558,32.7,83.983,1559177168.870960712
0.4329,0.0606,0.2207,-0.063,0.178,-9.697,0.001332,-0.001750,0.000634,32.7,83.996,1559177168.871978760
0.4361,0.0617,0.2219,-0.041,0.146,-9.679,0.000752,-0.000489,0.001604,32.7,83.992,1559177168.959901094
0.4350,0.0617,0.2219,-0.057,0.169,-9.721,0.000927,-0.001048,0.003024,32.7,83.996,1559177168.960913181
0.4318,0.0606,0.2221,-0.034,0.174,-9.729,0.000833,-0.001249,0.001463,32.7,83.983,1559177168.961978436
0.4307,0.0606,0.2222,-0.059,0.184,-9.714,0.001577,-0.001494,0.000540,32.7,83.996,1559177168.963026762
0.4339,0.0629,0.2220,-0.025,0.174,-9.678,0.001014,-0.002408,0.001887,32.7,83.983,1559177168.964056015
0.4329,0.0606,0.2180,-0.041,0.171,-9.712,0.000492,-0.000704,0.001711,32.7,83.996,1559177169.049657106
0.4329,0.0629,0.2248,-0.041,0.170,-9.684,0.000595,-0.001733,0.000979,32.7,83.983,1559177169.050696611
0.4329,0.0617,0.2207,-0.069,0.149,-9.684,0.001100,-0.000580,0.001776,32.7,83.979,1559177169.051726580
0.4307,0.0640,0.2195,-0.038,0.168,-9.667,0.000728,-0.000898,0.001442,32.7,83.983,1559177169.052739143
0.4328,0.0640,0.2207,-0.044,0.186,-9.696,0.000832,-0.000734,0.002528,32.7,83.996,1559177169.139420509
0.4318,0.0629,0.2208,-0.035,0.147,-9.680,0.000811,-0.000968,0.001244,32.7,83.983,1559177169.140430212
0.4339,0.0606,0.2193,-0.029,0.166,-9.653,0.001436,-0.002142,0.002224,32.7,83.996,1559177169.141444206
0.4318,0.0606,0.2180,-0.050,0.175,-9.694,0.000113,-0.000058,0.001266,32.7,83.983,1559177169.142464161
0.4339,0.0617,0.2220,-0.039,0.157,-9.719,0.000973,-0.000815,0.002243,32.7,83.996,1559177169.143482924
0.4307,0.0606,0.2249,-0.058,0.186,-9.678,0.000552,0.000127,0.002563,32.7,83.983,1559177169.230401754
0.4318,0.0617,0.2221,-0.053,0.162,-9.685,0.000638,-0.001610,0.001618,32.7,83.983,1559177169.231441498
0.4350,0.0606,0.2206,-0.025,0.156,-9.688,0.001547,-0.001012,0.001153,32.7,83.983,1559177169.232452393
0.4307,0.0618,0.2222,-0.054,0.172,-9.686,0.000955,-0.001323,0.000973,32.7,83.983,1559177169.233467340
0.4339,0.0606,0.2206,-0.034,0.159,-9.678,0.001126,-0.001898,0.001205,32.7,83.996,1559177169.320152760
0.4318,0.0595,0.2235,-0.078,0.173,-9.688,0.001924,-0.001377,0.001566,32.7,83.996,1559177169.321170092
0.4329,0.0617,0.2207,-0.042,0.181,-9.720,0.000945,-0.000694,0.002297,32.7,83.996,1559177169.322213411
0.4339,0.0629,0.2206,-0.053,0.166,-9.700,0.001241,-0.001582,0.001872,32.7,83.996,1559177169.323261261
0.4329,0.0606,0.2234,-0.052,0.163,-9.689,0.000076,-0.000560,0.002246,32.7,83.996,1559177169.324276924
0.4296,0.0618,0.2236,-0.051,0.201,-9.709,0.000804,-0.000729,0.000793,32.7,84.009,1559177169.409915924
0.4329,0.0606,0.2207,-0.047,0.194,-9.690,0.001668,-0.000993,0.001711,32.7,83.996,1559177169.410959005
0.4361,0.0617,0.2219,-0.060,0.177,-9.685,0.001378,0.000189,0.002044,32.7,83.983,1559177169.411981821
0.4318,0.0617,0.2221,-0.068,0.165,-9.680,0.000809,-0.000157,0.001850,32.7,83.996,1559177169.412998915
0.4318,0.0629,0.2208,-0.061,0.149,-9.688,0.000755,-0.001291,0.002254,32.7,83.983,1559177169.500933409
0.4296,0.0618,0.2209,-0.049,0.163,-9.694,0.002006,-0.001739,0.001179,32.7,83.996,1559177169.501955986
0.4307,0.0629,0.2208,-0.049,0.167,-9.684,0.000712,-0.002467,0.002387,32.7,83.992,1559177169.502992392
0.4328,0.0640,0.2207,-0.028,0.160,-9.697,0.000753,-0.001801,0.000955,32.7,83.983,1559177169.504013777
0.4339,0.0629,0.2193,-0.051,0.163,-9.663,0.001795,-0.000659,0.001631,32.7,83.992,1559177169.505028725
0.4318,0.0606,0.2221,-0.034,0.170,-9.665,0.001931,-0.000950,0.001897,32.7,83.996,1559177169.590699911
0.4350,0.0617,0.2179,-0.029,0.170,-9.656,-0.000112,-0.001102,0.001111,32.7,83.996,1559177169.591756821
0.4350,0.0617,0.2233,-0.061,0.177,-9.715,0.000591,-0.000290,0.001290,32.7,84.009,1559177169.592756748
0.4329,0.0606,0.2220,-0.026,0.175,-9.700,0.001876,-0.000772,0.002278,32.7,83.983,1559177169.593771696
0.4339,0.0606,0.2233,-0.055,0.165,-9.689,0.000347,-0.002105,0.001818,32.7,83.996,1559177169.682023048
0.4350,0.0617,0.2233,-0.057,0.188,-9.715,0.001284,-0.001637,0.001898,32.7,83.996,1559177169.683689594
0.4307,0.0606,0.2222,-0.055,0.169,-9.690,0.001179,-0.001222,0.002816,32.7,83.996,1559177169.685096741
0.4318,0.0617,0.2221,-0.054,0.182,-9.688,0.000794,-0.000920,0.001692,32.7,83.996,1559177169.686753035
0.4329,0.0617,0.2234,-0.051,0.161,-9.692,0.001346,-0.000725,0.001535,32.7,83.996,1559177169.687985182
0.4318,0.0617,0.2208,-0.040,0.159,-9.697,0.000789,-0.001763,0.002323,32.7,83.996,1559177169.771559238
0.4318,0.0606,0.2207,-0.056,0.176,-9.690,0.000669,-0.001183,0.001445,32.7,83.983,1559177169.772704840
0.4339,0.0629,0.2193,-0.058,0.170,-9.683,0.000033,-0.000589,0.002017,32.7,83.996,1559177169.773786068
0.4318,0.0606,0.2221,-0.048,0.182,-9.700,0.001823,-0.000968,0.001100,32.7,83.996,1559177169.774783134
0.4350,0.0617,0.2206,-0.045,0.159,-9.678,0.000515,-0.000625,0.001311,32.7,83.996,1559177169.861213446
0.4350,0.0595,0.2206,-0.040,0.192,-9.698,0.001073,-0.002489,0.001854,32.7,83.996,1559177169.862272263
0.4329,0.0595,0.2220,-0.048,0.170,-9.697,0.000837,-0.001724,0.001831,32.7,83.996,1559177169.863314629
0.4329,0.0606,0.2193,-0.056,0.188,-9.668,0.001214,0.000219,0.002072,32.7,83.996,1559177169.864335060
0.4328,0.0629,0.2221,-0.044,0.167,-9.702,0.001077,-0.001140,0.002101,32.7,83.996,1559177169.865403891
0.4339,0.0629,0.2206,-0.025,0.151,-9.720,0.000812,-0.000506,0.002867,32.7,83.996,1559177169.950938702
0.4339,0.0606,0.2233,-0.038,0.189,-9.691,0.000709,-0.001289,0.001206,32.7,83.996,1559177169.951964855
0.4339,0.0617,0.2234,-0.038,0.174,-9.699,0.001972,-0.001285,0.001140,32.7,83.996,1559177169.952980757
0.4339,0.0629,0.2166,-0.066,0.185,-9.715,0.001748,-0.001181,0.001273,32.7,83.983,1559177169.954020739
0.4350,0.0617,0.2206,-0.034,0.167,-9.680,0.000379,-0.001178,0.002000,32.7,83.996,1559177170.041903973
0.4329,0.0617,0.2221,-0.045,0.167,-9.703,0.001155,-0.000894,0.001545,32.7,83.983,1559177170.042943239
0.4307,0.0606,0.2222,-0.023,0.159,-9.686,0.001047,-0.001535,0.002124,32.7,83.996,1559177170.043963194
0.4329,0.0606,0.2220,-0.040,0.161,-9.709,0.001735,-0.001818,0.001884,32.7,83.996,1559177170.044981480
0.4318,0.0617,0.2235,-0.025,0.193,-9.707,0.000753,-0.001671,0.001413,32.7,83.983,1559177170.046037197
0.4318,0.0583,0.2207,-0.045,0.181,-9.693,0.000348,-0.001922,0.000965,32.7,83.983,1559177170.131673574
0.4339,0.0606,0.2193,-0.056,0.166,-9.682,0.000441,-0.001663,0.001790,32.7,83.983,1559177170.132683754
0.4361,0.0617,0.2246,-0.059,0.190,-9.692,0.001104,-0.001961,0.001565,32.7,83.996,1559177170.133700609
0.4339,0.0617,0.2220,-0.033,0.156,-9.714,0.000426,-0.000930,0.001347,32.7,83.996,1559177170.134718895
0.4329,0.0606,0.2207,-0.048,0.157,-9.682,-0.000014,-0.002162,0.001469,32.7,83.983,1559177170.222651958
0.4350,0.0606,0.2206,-0.035,0.207,-9.702,0.000079,-0.001933,0.001382,32.7,83.996,1559177170.223696470
0.4350,0.0617,0.2206,-0.056,0.173,-9.694,0.000726,-0.000462,0.001472,32.7,83.979,1559177170.224711895
0.4329,0.0617,0.2234,-0.040,0.170,-9.737,-0.000481,-0.000624,0.001897,32.7,83.983,1559177170.225777388
0.4340,0.0595,0.2233,-0.032,0.153,-9.695,0.001334,-0.001254,0.001288,32.7,83.996,1559177170.226832390
0.4307,0.0618,0.2222,-0.059,0.150,-9.689,0.001602,0.000377,0.001496,32.7,83.996,1559177170.312439680
0.4339,0.0629,0.2206,-0.049,0.163,-9.664,0.000329,-0.000240,0.001830,32.7,83.983,1559177170.313449383
0.4329,0.0617,0.2248,-0.035,0.160,-9.686,0.000869,-0.002803,0.002283,32.7,83.983,1559177170.314492226
0.4318,0.0606,0.2207,-0.042,0.180,-9.704,0.000426,-0.001612,0.001405,32.7,83.983,1559177170.315575123
0.4328,0.0629,0.2221,-0.091,0.140,-9.660,0.001921,-0.002466,0.002603,32.7,83.996,1559177170.402356148
0.4350,0.0629,0.2192,-0.029,0.187,-9.681,0.000916,-0.002011,0.001841,32.7,83.996,1559177170.403551102
0.4307,0.0606,0.2208,-0.058,0.154,-9.691,0.001113,-0.000884,0.001392,32.7,83.996,1559177170.404575109
0.4339,0.0617,0.2220,-0.029,0.184,-9.718,0.001416,-0.000794,0.001435,32.7,83.996,1559177170.405673981
0.4340,0.0583,0.2220,-0.023,0.162,-9.682,0.001606,-0.001589,0.002560,32.7,83.983,1559177170.406694889
0.4296,0.0583,0.2208,-0.038,0.179,-9.683,0.001317,-0.001071,0.001349,32.7,83.983,1559177170.491997719
0.4307,0.0618,0.2222,-0.062,0.167,-9.669,0.000874,-0.000336,0.002243,32.7,83.983,1559177170.492589712
0.4339,0.0617,0.2206,-0.037,0.196,-9.705,0.001302,-0.001540,0.001388,32.7,83.996,1559177170.493149519
0.4318,0.0640,0.2235,-0.041,0.175,-9.696,0.000574,-0.000876,0.001631,32.7,83.996,1559177170.493656158
0.4339,0.0629,0.2234,-0.043,0.149,-9.693,0.001631,-0.001209,0.001566,32.7,83.996,1559177170.582945824
0.4361,0.0629,0.2219,-0.042,0.178,-9.686,0.000345,-0.001075,0.001671,32.7,83.983,1559177170.583516836
0.4307,0.0618,0.2222,-0.023,0.172,-9.689,0.001597,-0.000758,0.001246,32.7,83.996,1559177170.584070206
0.4350,0.0595,0.2233,-0.044,0.178,-9.709,0.000756,-0.000511,0.002137,32.7,83.983,1559177170.584569454
0.4339,0.0617,0.2206,-0.051,0.191,-9.670,0.001272,-0.000409,0.001790,32.7,83.996,1559177170.585053921
0.4318,0.0629,0.2221,-0.065,0.162,-9.700,-0.000219,-0.001688,0.001474,32.7,83.996,1559177170.672583103
0.4329,0.0617,0.2207,-0.024,0.177,-9.720,0.001764,-0.001286,0.001673,32.7,83.983,1559177170.673096895
0.4307,0.0629,0.2208,-0.061,0.186,-9.715,0.001467,-0.001134,0.000674,32.7,83.996,1559177170.673590183
0.4318,0.0629,0.2221,-0.059,0.154,-9.688,0.001165,0.001163,0.001313,32.7,83.992,1559177170.674112558
0.4329,0.0583,0.2234,-0.066,0.192,-9.700,0.001228,-0.001986,0.001572,32.7,84.005,1559177170.763564110
0.4361,0.0594,0.2232,-0.057,0.165,-9.685,0.001377,-0.001066,0.001246,32.7,83.983,1559177170.764074564
0.4318,0.0606,0.2221,-0.037,0.164,-9.703,0.002265,-0.001360,0.001553,32.7,83.996,1559177170.764566422
0.4329,0.0617,0.2234,-0.060,0.184,-9.689,0.000179,-0.001908,0.001379,32.7,83.996,1559177170.765080929
0.4339,0.0629,0.2206,-0.067,0.175,-9.665,0.001061,-0.001735,0.001698,32.7,83.983,1559177170.765593767
0.4307,0.0606,0.2235,-0.058,0.139,-9.667,0.000466,-0.001146,0.000819,32.7,83.996,1559177170.853313208
0.4329,0.0606,0.2193,-0.057,0.160,-9.683,0.000964,-0.002328,0.001781,32.7,84.012,1559177170.853826046
0.4350,0.0606,0.2219,-0.050,0.171,-9.674,0.001567,-0.000418,0.000886,32.7,83.996,1559177170.854315996
0.4318,0.0617,0.2221,-0.050,0.174,-9.691,0.000045,-0.000684,0.001698,32.7,84.009,1559177170.854828358
0.4339,0.0629,0.2234,-0.024,0.146,-9.672,0.000781,-0.002285,0.002110,32.7,83.979,1559177170.943064213
0.4318,0.0617,0.2221,-0.056,0.167,-9.670,0.001239,-0.001913,0.000394,32.7,83.999,1559177170.943578243
0.4318,0.0617,0.2248,-0.053,0.171,-9.654,0.000366,0.000204,0.002361,32.7,83.996,1559177170.944072962
0.4329,0.0629,0.2234,-0.067,0.161,-9.688,0.000250,-0.000538,0.000953,32.7,83.996,1559177170.944585562
0.4329,0.0595,0.2207,-0.039,0.185,-9.679,0.000225,-0.000297,0.002111,32.7,83.996,1559177170.945073366
0.4328,0.0629,0.2207,-0.063,0.150,-9.678,0.001361,-0.000347,0.001323,32.7,83.992,1559177171.032840490
0.4361,0.0606,0.2219,-0.040,0.153,-9.699,0.002017,0.000501,0.001635,32.7,83.996,1559177171.033350945
0.4328,0.0629,0.2207,-0.064,0.185,-9.681,0.000463,-0.000384,0.001763,32.7,83.983,1559177171.033843756
0.4307,0.0595,0.2235,-0.047,0.177,-9.678,0.000516,-0.001450,0.001644,32.7,83.983,1559177171.034358978
0.4329,0.0606,0.2220,-0.044,0.144,-9.717,0.000862,-0.001443,0.002284,32.7,83.983,1559177171.123811960
0.4350,0.0617,0.2206,-0.053,0.170,-9.663,0.002533,-0.000892,0.000834,32.7,83.996,1559177171.124322653
0.4328,0.0640,0.2234,-0.036,0.168,-9.684,0.000667,-0.002773,0.001564,32.7,83.983,1559177171.124817133
0.4339,0.0617,0.2193,-0.071,0.190,-9.679,0.000592,-0.000301,0.001711,32.7,83.983,1559177171.125352859
0.4339,0.0606,0.2206,-0.053,0.166,-9.680,0.000102,-0.000910,0.001763,32.7,83.983,1559177171.125842810
0.4318,0.0606,0.2207,-0.074,0.182,-9.695,0.001875,-0.000445,0.001218,32.7,83.996,1559177171.213603973
0.4350,0.0617,0.2219,-0.036,0.163,-9.669,0.000900,-0.000094,0.002163,32.7,83.996,1559177171.214114189
0.4339,0.0629,0.2234,-0.037,0.163,-9.713,0.000812,-0.000666,0.001514,32.7,83.996,1559177171.215037107
0.4328,0.0629,0.2207,-0.045,0.174,-9.689,0.001600,-0.001349,0.001527,32.7,83.983,1559177171.216161251
0.4340,0.0583,0.2233,-0.036,0.160,-9.689,0.001108,-0.002002,0.002278,32.7,83.996,1559177171.304778576
0.4328,0.0640,0.2207,-0.057,0.171,-9.677,0.000651,-0.001141,0.001768,32.7,83.996,1559177171.305980444
0.4307,0.0606,0.2222,-0.062,0.172,-9.673,0.000851,-0.000263,0.000992,32.7,83.996,1559177171.307019234
0.4318,0.0640,0.2235,-0.049,0.219,-9.666,0.001398,-0.000530,0.001630,32.7,83.983,1559177171.308018684
0.4339,0.0629,0.2234,-0.042,0.172,-9.687,0.000378,-0.001910,0.001941,32.7,83.996,1559177171.309032202
0.4307,0.0606,0.2194,-0.050,0.174,-9.688,0.001401,-0.001463,0.001936,32.7,83.983,1559177171.394448519
0.4339,0.0640,0.2193,-0.045,0.193,-9.672,0.000947,-0.000315,0.001331,32.7,83.996,1559177171.395632029
0.4329,0.0595,0.2220,-0.047,0.154,-9.669,0.000907,-0.001858,0.001466,32.7,83.996,1559177171.396632671
0.4307,0.0618,0.2194,-0.067,0.184,-9.677,0.001228,-0.000358,0.002177,32.7,83.996,1559177171.397641420
0.4350,0.0606,0.2233,-0.035,0.181,-9.684,0.001028,-0.001498,0.001245,32.7,83.983,1559177171.484153271
0.4361,0.0617,0.2192,-0.050,0.185,-9.687,0.001242,-0.000978,0.000847,32.7,83.996,1559177171.485164881
0.4328,0.0640,0.2193,-0.054,0.162,-9.687,0.000876,-0.001998,0.003041,32.7,83.992,1559177171.486236572
0.4350,0.0617,0.2206,-0.058,0.181,-9.724,0.000628,-0.001185,0.000913,32.7,83.996,1559177171.487285137
0.4329,0.0629,0.2234,-0.037,0.169,-9.713,0.000790,0.000100,0.002235,32.7,83.983,1559177171.488299847
0.4307,0.0606,0.2181,-0.061,0.178,-9.715,0.000487,-0.000461,0.001118,32.7,83.996,1559177171.573903322
0.4329,0.0606,0.2234,-0.040,0.186,-9.694,0.001356,-0.001375,0.002363,32.7,83.983,1559177171.574924707
0.4339,0.0629,0.2206,-0.045,0.181,-9.696,0.000798,-0.002916,0.002869,32.7,83.983,1559177171.575987577
0.4307,0.0583,0.2221,-0.036,0.193,-9.688,0.001592,-0.000382,0.001445,32.7,83.983,1559177171.577012062
0.4329,0.0617,0.2234,-0.042,0.151,-9.696,0.000732,-0.002161,0.002776,32.7,83.996,1559177171.664901733
0.4339,0.0606,0.2193,-0.045,0.196,-9.699,0.000737,-0.001099,0.001912,32.7,84.005,1559177171.665967703
0.4307,0.0595,0.2208,-0.041,0.147,-9.705,0.001559,-0.001188,0.000514,32.7,83.996,1559177171.667015553
0.4339,0.0617,0.2220,-0.068,0.161,-9.691,0.001758,-0.001810,0.001003,32.7,83.996,1559177171.668040276
0.4328,0.0629,0.2193,-0.031,0.166,-9.680,0.000867,-0.000621,0.001486,32.7,83.996,1559177171.669057131
0.4350,0.0617,0.2219,-0.043,0.184,-9.688,0.001718,-0.001470,0.002217,32.7,83.992,1559177171.754653215
0.4307,0.0618,0.2208,-0.062,0.182,-9.720,0.001608,-0.001501,0.001499,32.7,83.979,1559177171.755753756
0.4318,0.0617,0.2235,-0.016,0.183,-9.688,-0.000149,-0.001702,0.000860,32.7,83.983,1559177171.756760120
0.4307,0.0629,0.2235,-0.027,0.165,-9.689,0.000646,-0.001045,0.002283,32.7,83.996,1559177171.757775784
0.4329,0.0606,0.2220,-0.055,0.181,-9.680,0.001421,0.000504,0.001326,32.7,83.996,1559177171.845708370
0.4361,0.0617,0.2219,-0.044,0.191,-9.680,0.000515,-0.001498,0.001429,32.7,83.996,1559177171.846721411
0.4350,0.0606,0.2192,-0.048,0.185,-9.720,0.001983,-0.000829,0.001858,32.7,83.996,1559177171.847758770
0.4329,0.0606,0.2234,-0.057,0.186,-9.707,0.001471,-0.001942,0.001552,32.7,83.996,1559177171.848778486
0.4328,0.0617,0.2193,-0.030,0.178,-9.700,0.001115,-0.001203,0.001298,32.7,83.983,1559177171.849794626
0.4318,0.0606,0.2180,-0.041,0.178,-9.683,0.000132,-0.001066,0.002218,32.7,83.983,1559177171.935404778
0.4329,0.0617,0.2221,-0.027,0.171,-9.691,0.000865,-0.001885,0.001683,32.7,83.979,1559177171.936421156
0.4361,0.0617,0.2205,-0.046,0.165,-9.718,0.000511,-0.001889,0.000734,32.7,83.996,1559177171.937440872
0.4329,0.0617,0.2207,-0.066,0.166,-9.694,0.001625,-0.001446,0.001875,32.7,83.996,1559177171.938472986
0.4318,0.0606,0.2221,-0.038,0.168,-9.687,0.001616,-0.000846,0.002163,32.7,83.983,1559177172.025147438
0.4318,0.0606,0.2221,-0.050,0.176,-9.650,0.001560,-0.001431,0.002428,32.7,83.996,1559177172.026230097
0.4329,0.0606,0.2207,-0.037,0.160,-9.686,0.000715,-0.000555,0.001724,32.7,83.983,1559177172.027274847
0.4339,0.0629,0.2220,-0.044,0.154,-9.682,0.001746,-0.000766,0.001740,32.7,83.996,1559177172.028294086
0.4339,0.0617,0.2206,-0.045,0.203,-9.689,0.000432,-0.001182,0.002240,32.7,83.996,1559177172.029310942
0.4329,0.0606,0.2207,-0.044,0.176,-9.680,0.001252,-0.000849,0.001391,32.7,83.983,1559177172.114927769
0.4350,0.0617,0.2247,-0.065,0.175,-9.694,0.001663,-0.000483,0.001636,32.7,83.996,1559177172.116013050
0.4329,0.0595,0.2207,-0.051,0.191,-9.674,0.001736,-0.001802,0.002615,32.7,83.992,1559177172.117022038
0.4307,0.0640,0.2222,-0.054,0.181,-9.698,0.001616,-0.002079,0.002563,32.7,83.996,1559177172.118040800
0.4318,0.0595,0.2221,-0.038,0.176,-9.699,0.001266,-0.002131,0.001953,32.7,83.983,1559177172.205898046
0.4339,0.0629,0.2193,-0.051,0.167,-9.697,0.001060,-0.001560,0.001977,32.7,83.983,1559177172.206954479
0.4307,0.0595,0.2222,-0.060,0.139,-9.658,0.001325,0.000177,-0.000100,32.7,83.979,1559177172.207976818
0.4329,0.0595,0.2220,-0.051,0.157,-9.678,0.001646,-0.001087,0.001924,32.7,83.996,1559177172.208998680
0.4318,0.0629,0.2221,-0.060,0.161,-9.732,0.000321,-0.001413,0.001652,32.7,83.996,1559177172.210043669
0.4296,0.0606,0.2222,-0.066,0.181,-9.721,0.001008,-0.002426,0.002178,32.7,83.979,1559177172.295650959
0.4318,0.0618,0.2194,-0.040,0.179,-9.711,0.001383,-0.001184,0.001885,32.7,83.979,1559177172.296666861
0.4307,0.0618,0.2208,-0.043,0.173,-9.681,0.003009,-0.001425,0.002443,32.7,83.996,1559177172.297680855
0.4339,0.0629,0.2193,-0.050,0.174,-9.701,0.001395,-0.001791,0.000299,32.7,83.996,1559177172.298707247
0.4318,0.0629,0.2221,-0.064,0.186,-9.706,0.000505,0.000080,0.002128,32.7,83.992,1559177172.386668682
0.4339,0.0640,0.2220,-0.069,0.167,-9.681,0.001417,-0.000813,0.002234,32.7,83.992,1559177172.387714624
0.4329,0.0606,0.2248,-0.032,0.149,-9.716,0.000608,-0.000080,0.001102,32.7,83.996,1559177172.388733864
0.4328,0.0629,0.2207,-0.035,0.183,-9.675,0.000883,-0.000189,0.002203,32.7,83.983,1559177172.389756918
0.4339,0.0617,0.2220,-0.064,0.162,-9.672,0.001227,-0.001727,0.002987,32.7,83.996,1559177172.390772104
0.4329,0.0606,0.2207,-0.049,0.179,-9.681,0.001336,-0.001477,0.002017,32.7,83.996,1559177172.476398945
0.4339,0.0617,0.2206,-0.058,0.173,-9.663,0.001572,-0.000689,0.001697,32.7,83.983,1559177172.477412224
0.4296,0.0629,0.2222,-0.044,0.197,-9.687,0.000305,-0.000386,0.002004,32.7,83.996,1559177172.478424549
0.4328,0.0629,0.2207,-0.034,0.162,-9.679,0.000880,-0.001284,0.000986,32.7,83.983,1559177172.479465961
0.4318,0.0606,0.2207,-0.025,0.151,-9.718,0.001886,-0.000306,0.000082,32.7,83.996,1559177172.566179991
0.4318,0.0595,0.2194,-0.057,0.156,-9.685,0.001225,-0.001782,0.002509,32.7,83.992,1559177172.567219496
0.4307,0.0618,0.2235,-0.051,0.170,-9.716,0.001096,-0.001388,0.001740,32.7,83.996,1559177172.568237305
0.4328,0.0629,0.2207,-0.044,0.181,-9.665,-0.000154,-0.001795,0.001098,32.7,83.992,1559177172.569261312
0.4350,0.0640,0.2192,-0.068,0.165,-9.683,0.000858,-0.000136,0.002442,32.7,83.996,1559177172.570292473
0.4339,0.0629,0.2220,-0.055,0.162,-9.663,0.001101,-0.001305,0.001768,32.7,83.996,1559177172.655905485
0.4340,0.0595,0.2261,-0.019,0.157,-9.657,0.001431,-0.000999,0.001967,32.7,83.979,1559177172.656921864
0.4350,0.0640,0.2206,-0.050,0.162,-9.667,0.000693,-0.001807,0.001751,32.7,84.009,1559177172.657953978
0.4307,0.0618,0.2208,-0.068,0.155,-9.686,0.000575,-0.000338,0.001469,32.7,83.992,1559177172.659003258
0.4329,0.0617,0.2207,-0.040,0.177,-9.697,0.001789,-0.001203,0.001081,32.7,83.992,1559177172.746925116
0.4329,0.0606,0.2234,-0.041,0.161,-9.688,0.000735,-0.001397,0.001112,32.7,83.996,1559177172.747953653
0.4318,0.0595,0.2221,-0.054,0.153,-9.713,0.001447,-0.000417,0.001978,32.7,83.983,1559177172.748973131
0.4318,0.0595,0.2221,-0.030,0.151,-9.681,0.001000,-0.001057,0.001844,32.7,83.983,1559177172.749995708
0.4329,0.0595,0.2207,-0.049,0.198,-9.679,0.001649,-0.001540,0.001591,32.7,83.983,1559177172.751030922
0.4296,0.0595,0.2222,-0.043,0.170,-9.693,0.001368,-0.001052,0.001911,32.7,83.996,1559177172.836781502
0.4350,0.0595,0.2246,-0.053,0.178,-9.718,0.001179,-0.000815,0.001645,32.7,83.983,1559177172.837907553
0.4339,0.0640,0.2234,-0.041,0.157,-9.677,0.000590,-0.000278,0.001497,32.7,83.992,1559177172.838912010
0.4307,0.0606,0.2208,-0.046,0.177,-9.711,0.002134,-0.001931,0.002365,32.7,83.996,1559177172.839921713
0.4339,0.0617,0.2206,-0.049,0.176,-9.670,0.001997,-0.000646,0.002017,32.7,83.983,1559177172.927657127
0.4339,0.0617,0.2206,-0.048,0.141,-9.693,0.001207,-0.000250,0.001588,32.7,83.992,1559177172.928672791
0.4296,0.0618,0.2236,-0.035,0.165,-9.677,0.001706,-0.001171,0.000356,32.7,83.983,1559177172.929688931
0.4318,0.0617,0.2221,-0.061,0.172,-9.705,0.001098,-0.001386,0.002057,32.7,83.983,1559177172.930716276
0.4329,0.0606,0.2220,-0.070,0.176,-9.690,-0.000133,-0.000925,0.002176,32.7,83.983,1559177172.931751728
0.4296,0.0606,0.2222,-0.032,0.199,-9.734,0.001054,-0.000281,0.002084,32.7,83.983,1559177173.017404318
0.4296,0.0640,0.2209,-0.030,0.180,-9.695,0.001359,-0.001397,0.001804,32.7,83.992,1559177173.018446684
0.4339,0.0629,0.2220,-0.060,0.187,-9.705,0.000871,-0.001176,0.002111,32.7,83.983,1559177173.019496679
0.4318,0.0617,0.2208,-0.048,0.196,-9.697,0.000769,-0.000510,0.002204,32.7,83.996,1559177173.020514250
0.4318,0.0606,0.2221,-0.043,0.159,-9.684,0.000809,-0.000827,0.001538,32.7,83.996,1559177173.107174397
0.4296,0.0629,0.2195,-0.043,0.175,-9.715,0.000614,-0.002010,0.000954,32.7,83.983,1559177173.108191967
0.4318,0.0617,0.2208,-0.035,0.170,-9.715,0.001189,-0.000736,0.001394,32.7,83.996,1559177173.109237432
0.4339,0.0629,0.2206,-0.055,0.175,-9.708,0.000028,-0.001336,0.001672,32.7,83.983,1559177173.110259295
0.4339,0.0606,0.2206,-0.051,0.183,-9.660,0.000261,-0.001416,0.003073,32.7,83.983,1559177173.111301184
0.4329,0.0606,0.2207,-0.043,0.150,-9.707,0.000707,-0.000205,0.001348,32.7,83.983,1559177173.196898460
0.4329,0.0606,0.2207,-0.063,0.187,-9.698,0.000535,-0.000157,0.002128,32.7,83.996,1559177173.197910547
0.4318,0.0617,0.2235,-0.063,0.181,-9.687,0.000985,-0.000790,0.001413,32.7,83.996,1559177173.198938608
0.4340,0.0595,0.2233,-0.042,0.152,-9.709,0.000822,-0.000876,0.001179,32.7,83.996,1559177173.199962139
0.4339,0.0606,0.2193,-0.038,0.179,-9.672,0.000831,-0.001053,0.001641,32.7,83.983,1559177173.200975418
0.4318,0.0618,0.2194,-0.092,0.150,-9.720,0.001234,-0.000136,0.001326,32.7,83.983,1559177173.287932158
0.4328,0.0629,0.2193,-0.047,0.171,-9.703,0.002080,-0.000971,0.002229,32.7,83.996,1559177173.288944721
0.4296,0.0652,0.2209,-0.079,0.181,-9.698,0.001154,0.000622,0.000992,32.7,83.996,1559177173.289973736
0.4296,0.0629,0.2222,-0.060,0.155,-9.708,0.001960,-0.001057,0.001658,32.7,83.983,1559177173.291020393
0.4318,0.0606,0.2221,-0.043,0.145,-9.725,0.000539,-0.000210,0.001871,32.7,83.983,1559177173.378926277
0.4328,0.0640,0.2207,-0.063,0.175,-9.695,0.000844,0.000025,0.001418,32.7,83.996,1559177173.379951239
0.4361,0.0629,0.2219,-0.031,0.174,-9.708,0.000596,-0.000691,0.001552,32.7,83.992,1559177173.380969524
0.4318,0.0606,0.2221,-0.044,0.185,-9.688,0.001333,-0.000248,0.002350,32.7,83.983,1559177173.381985188
0.4350,0.0617,0.2206,-0.050,0.183,-9.708,0.001432,-0.001289,0.001815,32.7,83.983,1559177173.383012533
0.4350,0.0629,0.2219,-0.059,0.174,-9.710,0.001611,-0.001523,0.002148,32.7,83.966,1559177173.468652248
0.4296,0.0618,0.2222,-0.052,0.162,-9.699,0.001471,-0.002020,0.001657,32.7,83.996,1559177173.469664097
0.4328,0.0663,0.2221,-0.071,0.159,-9.684,0.000534,-0.000688,0.002003,32.7,83.983,1559177173.470680714
0.4328,0.0629,0.2221,-0.050,0.176,-9.695,0.001755,-0.001284,0.001991,32.7,83.996,1559177173.471703529
0.4318,0.0606,0.2221,-0.054,0.178,-9.704,0.000566,-0.000101,0.002071,32.7,83.996,1559177173.558397293
0.4339,0.0617,0.2193,-0.040,0.180,-9.664,0.002015,-0.001309,0.001738,32.7,83.996,1559177173.559440374
0.4361,0.0640,0.2205,-0.050,0.176,-9.706,0.001382,-0.002254,0.001485,32.7,83.983,1559177173.560456038
0.4328,0.0629,0.2193,-0.037,0.159,-9.703,0.000713,-0.000274,0.002083,32.7,83.983,1559177173.561475992
0.4328,0.0640,0.2207,-0.033,0.165,-9.671,0.001195,-0.000148,0.001644,32.7,83.996,1559177173.562494278
0.4329,0.0617,0.2234,-0.049,0.159,-9.643,0.001267,-0.001235,0.001361,32.7,83.996,1559177173.648159504
0.4318,0.0606,0.2221,-0.053,0.154,-9.681,0.000545,-0.000812,0.001750,32.7,83.996,1559177173.649176598
0.4329,0.0606,0.2234,-0.057,0.174,-9.680,0.000593,-0.001817,0.002535,32.7,83.983,1559177173.650219917
0.4318,0.0618,0.2194,-0.052,0.148,-9.661,0.000190,-0.000707,0.001998,32.7,83.979,1559177173.651265383
0.4318,0.0606,0.2235,-0.024,0.171,-9.716,0.001125,-0.001896,0.001995,32.7,83.996,1559177173.739175558
0.4328,0.0629,0.2221,-0.041,0.175,-9.663,0.000793,-0.000403,0.002359,32.7,83.983,1559177173.740189791
0.4339,0.0629,0.2220,-0.029,0.179,-9.717,0.000654,-0.000339,0.002674,32.7,83.996,1559177173.741203547
0.4307,0.0595,0.2208,-0.047,0.162,-9.672,0.001153,-0.000950,0.001325,32.7,83.983,1559177173.742221832
0.4339,0.0606,0.2193,-0.042,0.186,-9.688,0.000780,-0.000565,0.001724,32.7,83.983,1559177173.743313313
0.4329,0.0617,0.2207,-0.061,0.156,-9.701,0.001387,-0.001546,0.002770,32.7,83.996,1559177173.828896284
0.4307,0.0618,0.2208,-0.060,0.156,-9.737,0.000131,-0.001642,0.001775,32.7,83.983,1559177173.829907417
0.4339,0.0629,0.2247,-0.062,0.154,-9.679,0.002037,-0.001815,0.001697,32.7,83.983,1559177173.830935240
0.4361,0.0640,0.2178,-0.041,0.169,-9.709,0.000854,0.000252,0.002603,32.7,83.996,1559177173.831952333
0.4318,0.0617,0.2221,-0.047,0.190,-9.681,0.001250,-0.001172,0.001592,32.7,83.996,1559177173.919916391
0.4329,0.0617,0.2207,-0.061,0.145,-9.691,0.000966,-0.000933,0.002922,32.7,83.992,1559177173.920930147
0.4329,0.0629,0.2234,-0.054,0.174,-9.689,0.000459,-0.001760,0.002646,32.7,83.996,1559177173.921954632
0.4339,0.0617,0.2234,-0.050,0.173,-9.695,0.001025,-0.002164,0.001404,32.7,83.992,1559177173.923002720
0.4329,0.0617,0.2207,-0.071,0.149,-9.688,0.000820,-0.000540,0.001723,32.7,83.996,1559177173.924027443
0.4318,0.0629,0.2221,-0.059,0.183,-9.701,0.001660,-0.001786,0.001995,32.7,83.983,1559177174.009680510
0.4329,0.0606,0.2207,-0.055,0.178,-9.714,0.000442,-0.000808,0.001694,32.7,83.983,1559177174.010718822
0.4350,0.0629,0.2219,-0.051,0.178,-9.703,0.001295,-0.000345,0.002372,32.7,83.996,1559177174.011750937
0.4350,0.0640,0.2233,-0.059,0.174,-9.674,0.000616,-0.001997,0.001498,32.7,83.983,1559177174.012765646
0.4296,0.0606,0.2195,-0.050,0.170,-9.723,0.001786,-0.000114,0.001407,32.7,83.983,1559177174.100650549
0.4318,0.0629,0.2221,-0.054,0.180,-9.690,0.000752,-0.000800,0.002895,32.7,83.983,1559177174.101663589
0.4329,0.0606,0.2220,-0.049,0.169,-9.705,0.001243,-0.001413,0.001897,32.7,84.009,1559177174.102676392
0.4318,0.0606,0.2207,-0.057,0.173,-9.672,0.000783,-0.002067,0.002815,32.7,83.996,1559177174.103703976
0.4329,0.0606,0.2234,-0.052,0.145,-9.683,0.001191,-0.001032,0.000806,32.7,83.996,1559177174.104718208
0.4339,0.0629,0.2234,-0.038,0.177,-9.667,0.000898,-0.000672,0.001512,32.7,83.996,1559177174.190416813
0.4307,0.0606,0.2208,-0.037,0.163,-9.682,0.001452,-0.000636,0.001994,32.7,83.996,1559177174.191457272
0.4340,0.0583,0.2220,-0.076,0.178,-9.676,0.001759,-0.001750,0.002280,32.7,83.983,1559177174.192471743
0.4350,0.0595,0.2219,-0.031,0.169,-9.681,0.001495,-0.000795,0.001830,32.7,83.996,1559177174.193488359
0.4328,0.0617,0.2166,-0.043,0.181,-9.715,0.000609,-0.000963,0.002695,32.7,83.996,1559177174.280292273
0.4361,0.0617,0.2232,-0.048,0.173,-9.665,0.001383,-0.000802,0.002151,32.7,83.966,1559177174.281442881
0.4329,0.0617,0.2234,-0.028,0.169,-9.690,0.001163,-0.001073,0.001766,32.7,83.996,1559177174.282474041
0.4318,0.0629,0.2194,-0.072,0.186,-9.703,0.002310,-0.000754,0.001292,32.7,83.996,1559177174.283519030
0.4328,0.0640,0.2234,-0.046,0.174,-9.680,0.001019,-0.000574,0.002124,32.7,83.996,1559177174.284528017
0.4361,0.0606,0.2232,-0.047,0.158,-9.712,0.001124,-0.000723,0.001446,32.7,83.992,1559177174.369915724
0.4296,0.0606,0.2222,-0.058,0.160,-9.677,0.001486,0.000048,0.001098,32.7,83.970,1559177174.370945454
0.4350,0.0617,0.2192,-0.063,0.164,-9.697,0.001118,-0.002294,0.001682,32.7,83.996,1559177174.371964931
0.4350,0.0617,0.2206,-0.053,0.175,-9.720,0.001121,-0.002228,0.001779,32.7,83.979,1559177174.372985363
0.4318,0.0606,0.2235,-0.036,0.164,-9.681,0.001388,-0.001853,0.001205,32.7,83.996,1559177174.460900784
0.4329,0.0617,0.2207,-0.031,0.168,-9.661,0.000634,-0.000718,0.001191,32.7,83.983,1559177174.461915970
0.4350,0.0595,0.2219,-0.046,0.176,-9.694,0.000431,-0.001064,0.001699,32.7,83.996,1559177174.462944746
0.4328,0.0640,0.2207,-0.024,0.154,-9.676,0.001174,0.000130,0.001799,32.7,83.996,1559177174.463967800
0.4307,0.0618,0.2222,-0.057,0.164,-9.691,0.001296,-0.000342,0.002403,32.7,83.983,1559177174.464983463
0.4350,0.0640,0.2220,-0.040,0.194,-9.700,0.000001,-0.001435,0.001020,32.7,84.009,1559177174.550671577
0.4318,0.0595,0.2207,-0.056,0.173,-9.685,0.001440,-0.001566,0.002090,32.7,83.983,1559177174.551714420
0.4339,0.0617,0.2247,-0.040,0.148,-9.693,0.002130,-0.002598,0.002315,32.7,83.996,1559177174.552726984
0.4361,0.0594,0.2219,-0.059,0.161,-9.693,0.000854,-0.000992,0.001725,32.7,83.996,1559177174.553741932
0.4318,0.0606,0.2207,-0.045,0.149,-9.689,0.000503,-0.001546,0.001272,32.7,83.983,1559177174.641665697
0.4318,0.0606,0.2221,-0.037,0.147,-9.692,0.000644,0.000306,0.000872,32.7,83.983,1559177174.642722130
0.4361,0.0594,0.2205,-0.051,0.175,-9.722,-0.000229,-0.000276,0.000755,32.7,83.996,1559177174.643751383
0.4318,0.0618,0.2194,-0.057,0.167,-9.656,0.000323,-0.001056,0.001204,32.7,83.979,1559177174.644771814
0.4318,0.0617,0.2221,-0.045,0.177,-9.683,0.000426,-0.002356,0.001990,32.7,83.996,1559177174.645867348
0.4307,0.0629,0.2208,-0.043,0.172,-9.679,0.001876,-0.001448,0.001418,32.7,83.983,1559177174.731403112
0.4339,0.0606,0.2206,-0.066,0.174,-9.696,0.001195,-0.000881,0.001777,32.7,83.996,1559177174.732415676
0.4350,0.0606,0.2219,-0.050,0.175,-9.701,0.001357,-0.001195,0.001915,32.7,83.983,1559177174.733432055
0.4318,0.0617,0.2221,-0.052,0.166,-9.669,0.001078,-0.000975,0.001480,32.7,83.996,1559177174.734447956
0.4307,0.0595,0.2208,-0.042,0.161,-9.688,0.000311,-0.000760,0.001778,32.7,83.996,1559177174.821198702
